# Measure raw data (C) NeU Corporation. 2023. All rights reserved,,,,,,,,,,,,,,,,,,,,,,
# Raw data export format,,,,,,,,,,,,,,,,,,,,,,
# Ver 3.00,,,,,,,,,,,,,,,,,,,,,,
# ,,,,,,,,,,,,,,,,,,,,,,
# Sensor Informations,,,,,,,,,,,,,,,,,,,,,,
# Type,HOT-2000,,,,,,,,,,,,,,,,,,,,,
# ID,C0:84:18:33:34:4B,,,,,,,,,,,,,,,,,,,,,
# Version,2023072701,,,,,,,,,,,,,,,,,,,,,
# Connection,Bluetooth,,,,,,,,,,,,,,,,,,,,,
# Gain,15,36,14,28,,,,,,,,,,,,,,,,,,
# Average,1925,1829,2001,1885,,,,,,,,,,,,,,,,,,
# HbT Offset,3.79103329706742,4.0531253745624,3.65227824906046,3.94717194124304,,,,,,,,,,,,,,,,,,
# ,,,,,,,,,,,,,,,,,,,,,,
# Device time,Headset time,HbT change(left subtracted),HbT change(right subtracted),Estimated pulse rate,HbT change(left SD1cm),HbT change(left SD3cm),HbT change(right SD1cm),HbT change(right SD3cm),Saturation(left SD1cm),saturation(left SD3cm),Saturation(right SD1cm),saturation(right SD3cm),Noise detection flag,Mark,Accerelo-X,Accerelo-Y,Accerelo-Z,Gyro-X, Gyro-Y, Gyro-Z,Battery-Volt, Battery-Remain
2025/07/05 10:06:03.669,0.0,0,0,0,0,0,0,0,0,0,0,0,0, ,-0.97998046875,-0.22998046875,0.05859375,0.18310546875,-2.0751953125,0.244140625,4,82
2025/07/05 10:06:03.769,0.1,0.0181907043687177,0.0432614129410114,0,0.100003332043181,0.136384740780618,0.0663275022637211,0.152850328145743,0,0,0,0,0, ,-0.98876953125,-0.22021484375,0.05859375,0.42724609375,-1.28173828125,0.18310546875,4,82
2025/07/05 10:06:03.869,0.2,0.027286056553077,0.0648921194115166,0,0.126655846780732,0.176045004789153,0.0946561895199776,0.200191254756013,0,0,0,0,0, ,-0.982421875,-0.23046875,0.05908203125,0.42724609375,-2.13623046875,0.244140625,4,82
2025/07/05 10:06:03.969,0.3,0.0324857988263609,0.0748048609892747,0,0.129328928868186,0.184584716387683,0.102410132545392,0.197394051927537,0,0,0,0,0, ,-0.9765625,-0.22705078125,0.05517578125,0.79345703125,-1.953125,0.1220703125,4,82
2025/07/05 10:06:04.069,0.4,0.036711638621876,0.0803906824879926,0,0.129328928868186,0.187434531184406,0.110176118976668,0.191804336504124,0,0,0,0,0, ,-0.98095703125,-0.23291015625,0.05859375,0.18310546875,-2.13623046875,-0.244140625,4,82
2025/07/05 10:06:04.169,0.5,0.0399954825187017,0.0799035579597496,0,0.110647295457182,0.167519853660769,0.102410132545392,0.161172105254802,0,0,0,0,0, ,-0.97900390625,-0.2294921875,0.056640625,0.8544921875,-2.0751953125,-0.06103515625,4,82
2025/07/05 10:06:04.269,0.6,0.0428083284661826,0.0776722842555955,0,0.0840797519428622,0.139207207649523,0.0869142526046938,0.125210678295041,0,0,0,0,0, ,-0.98681640625,-0.22705078125,0.0595703125,0.06103515625,-1.77001953125,-0.54931640625,4,82
2025/07/05 10:06:04.369,0.7,0.0435554553860085,0.0760371001673585,0,0.0418631429339427,0.0914406186081713,0.0637601081505745,0.0649359766664337,0,0,0,0,0, ,-0.97705078125,-0.23828125,0.05908203125,1.46484375,-1.89208984375,-0.244140625,4,82
2025/07/05 10:06:04.469,0.8,0.0444247363069522,0.0747744720890698,0,0.0840797519428622,0.150513034796739,0.0869142526046938,0.125210678295041,0,0,0,0,0, ,-0.9794921875,-0.23388671875,0.05712890625,0.244140625,-1.708984375,0.30517578125,4,82
2025/07/05 10:06:04.569,0.9,0.0454543356593544,0.0738246413722773,0,0.177690401360083,0.28821536742905,0.157027059716458,0.276313389257857,0,0,0,0,0, ,-0.97900390625,-0.23388671875,0.0546875,0.8544921875,-1.15966796875,-0.30517578125,4,82
2025/07/05 10:06:04.669,1.0,0.0462219879040194,0.0742376832197273,0,0.204761392911056,0.334971990333127,0.185875814901165,0.316245146826077,0,0,0,0,0, ,-0.97705078125,-0.23583984375,0.05615234375,0.67138671875,-1.52587890625,-0.30517578125,4,82
2025/07/05 10:06:04.770,1.1,0.0467765774367411,0.0758696267152465,0,0.207476570781468,0.340847431579709,0.191138973203455,0.310521047831707,0,0,0,0,0, ,-0.9755859375,-0.24169921875,0.0517578125,1.15966796875,-1.8310546875,-0.06103515625,4,82
2025/07/05 10:06:04.870,1.2,0.0476019205601675,0.0769059968602093,0,0.202047688678638,0.343787743293666,0.191138973203455,0.301947167607612,0,0,0,0,0, ,-0.97802734375,-0.23974609375,0.05322265625,0.8544921875,-1.8310546875,-0.18310546875,4,82
2025/07/05 10:06:04.970,1.3,0.0504260254549695,0.0784992261338023,0,0.18309288694835,0.329103445145931,0.180618190940908,0.270634797022838,0,0,0,0,0, ,-0.97314453125,-0.24072265625,0.0537109375,0.9765625,-2.01416015625,0.48828125,4,82
2025/07/05 10:06:05.070,1.4,0.055792375825954,0.0792058730036114,0,0.153451194540644,0.294036089769183,0.162259922491838,0.225436749807716,0,0,0,0,0, ,-0.97509765625,-0.232421875,0.052734375,0.79345703125,-1.46484375,-0.54931640625,4,82
2025/07/05 10:06:05.170,1.5,0.0604432128141406,0.0798183002907792,0,0.11597778628774,0.241891933128772,0.128343800256706,0.163949111671922,0,0,0,0,0, ,-0.97705078125,-0.244140625,0.0556640625,0.54931640625,-2.01416015625,0.79345703125,4,82
2025/07/05 10:06:05.270,1.6,0.0649822545093624,0.0804420785281159,0,0.158827539064565,0.308617610530843,0.154412680610883,0.228249689361792,0,0,0,0,0, ,-0.98046875,-0.23828125,0.056640625,0.54931640625,-2.01416015625,1.28173828125,4,82
2025/07/05 10:06:05.370,1.7,0.0693049974019982,0.0817122525219899,0,0.242908716348401,0.429817749256288,0.220185793304823,0.368059081231723,0,0,0,0,0, ,-0.97265625,-0.22900390625,0.05322265625,-2.0751953125,-0.48828125,2.38037109375,4,82
2025/07/05 10:06:05.470,1.8,0.0732029103200003,0.0830550871325292,0,0.259347087074408,0.456820514753916,0.238758380050147,0.385450402854195,0,0,0,0,0, ,-0.9736328125,-0.22509765625,0.05126953125,2.0751953125,-2.44140625,1.15966796875,4,82
2025/07/05 10:06:05.570,1.9,0.076429345048504,0.0848799095817303,0,0.256603602821492,0.459829843719567,0.241417247395705,0.382547645196183,0,0,0,0,0, ,-0.97705078125,-0.23291015625,0.0556640625,1.5869140625,-3.0517578125,2.38037109375,4,82
2025/07/05 10:06:05.670,2.0,0.0794856506814105,0.086390670828454,0,0.245644694488075,0.450807285014719,0.233444883348714,0.359386052299919,0,0,0,0,0, ,-0.9765625,-0.2177734375,0.0576171875,1.64794921875,-3.662109375,2.74658203125,4,82
2025/07/05 10:06:05.770,2.1,0.0836835860606318,0.0872549736122849,0,0.218352050709172,0.411896583384259,0.21224718365806,0.310521047831707,0,0,0,0,0, ,-0.98828125,-0.21484375,0.06396484375,0.79345703125,-2.01416015625,4.2724609375,4,82
2025/07/05 10:06:05.870,2.2,0.0883995623367131,0.0875084372967417,0,0.180390914482977,0.364418482542106,0.183246311855815,0.253637613768796,0,0,0,0,0, ,-0.9833984375,-0.2119140625,0.0595703125,1.953125,-1.28173828125,5.4931640625,4,82
2025/07/05 10:06:05.970,2.3,0.0927641922510781,0.0873703566770275,0,0.137356760283111,0.311539024534779,0.14918801981627,0.18901182041618,0,0,0,0,0, ,-0.9833984375,-0.2119140625,0.0595703125,1.953125,-1.28173828125,5.4931640625,4,82
2025/07/05 10:06:06.070,2.4,0.0969498503173281,0.0872437827756227,0,0.177690401360083,0.373286353490045,0.175366089695911,0.250810358999943,0,0,0,0,0, ,-0.97998046875,-0.1875,0.05615234375,3.41796875,-2.5634765625,6.591796875,4,82
2025/07/05 10:06:06.170,2.5,0.100680927616294,0.0885035139279727,0,0.251121146213543,0.474903716835398,0.228137027303014,0.373849469748577,0,0,0,0,0, ,-0.99658203125,-0.1650390625,0.0615234375,1.40380859375,-2.8076171875,9.21630859375,4,82
2025/07/05 10:06:06.270,2.6,0.104348423158639,0.0904672694100469,0,0.256603602821492,0.486995620976623,0.238758380050147,0.379646571760868,0,0,0,0,0, ,-1.00537109375,-0.17138671875,0.06982421875,-0.06103515625,-2.197265625,6.8359375,4,82
2025/07/05 10:06:06.370,2.7,0.108193637315588,0.0919329174379522,0,0.245644694488075,0.471885304473586,0.236100925868274,0.362275390678788,0,0,0,0,0, ,-1.0224609375,-0.1572265625,0.0908203125,-1.28173828125,0.79345703125,7.8125,4,82
2025/07/05 10:06:06.470,2.8,0.112003227929564,0.0930281167245814,0,0.229251237423864,0.453812995911061,0.228137027303014,0.342084997233246,0,0,0,0,0, ,-0.96435546875,-0.0859375,0.03515625,6.04248046875,4.33349609375,10.07080078125,4,82
2025/07/05 10:06:06.570,2.9,0.11529795421244,0.0934792477703523,0,0.180390914482977,0.370328648626812,0.191138973203455,0.2649626467543,0,0,0,0,0, ,-0.98583984375,-0.1240234375,0.00439453125,4.69970703125,0.42724609375,3.0517578125,4,82
2025/07/05 10:06:06.670,3.0,0.117895355266728,0.0932315651400821,0,0.11597778628774,0.276594211876818,0.157027059716458,0.194598413092896,0,0,0,0,0, ,-1.01513671875,-0.18017578125,0.01953125,-9.3994140625,-1.5869140625,4.21142578125,4,82
2025/07/05 10:06:06.770,3.1,0.123669551340286,0.0941931009664456,0,0.0920352029855263,0.247658946369604,0.14918801981627,0.172289397051127,0,0,0,0,0, ,-1.00341796875,-0.12353515625,0.02734375,-13.916015625,-1.40380859375,5.7373046875,4,82
2025/07/05 10:06:06.870,3.2,0.128882399153601,0.0938711631920014,0,0.166902910820723,0.346729785111703,0.196407677511303,0.276313389257857,0,0,0,0,0, ,-1.00439453125,-0.08349609375,0.03271484375,-7.568359375,-2.685546875,10.43701171875,4,82
2025/07/05 10:06:06.971,3.3,0.133863379729851,0.0936973112878455,0,0.199335456485474,0.391069418799292,0.220185793304823,0.319109655598492,0,0,0,0,0, ,-0.9951171875,-0.01806640625,0.0419921875,-6.2255859375,-2.99072265625,5.4931640625,4,82
2025/07/05 10:06:07.071,3.4,0.138578269403865,0.0934395326223777,0,0.17229374684212,0.346729785111703,0.193772631376274,0.259296923852883,0,0,0,0,0, ,-1.00048828125,-0.0517578125,0.04052734375,3.5400390625,-2.3193359375,-1.52587890625,4,82
2025/07/05 10:06:07.171,3.5,0.142880137007222,0.0933592927462281,0,0.148080624823984,0.314462146468661,0.177991450704244,0.231064212332533,0,0,0,0,0, ,-1.01025390625,-0.072265625,0.04345703125,1.708984375,-1.220703125,2.62451171875,4,82
2025/07/05 10:06:07.271,3.6,0.146888766943112,0.0934645616555248,0,0.123984193003304,0.28821536742905,0.167498267575998,0.202990023329226,0,0,0,0,0, ,-1.01611328125,-0.08837890625,0.04345703125,3.90625,-1.15966796875,0.8544921875,4,82
2025/07/05 10:06:07.371,3.7,0.15105763297854,0.0932775403388889,0,0.0867301627791051,0.241891933128772,0.143968812739551,0.155622715200689,0,0,0,0,0, ,-1.0029296875,-0.0537109375,0.0302734375,5.06591796875,-1.40380859375,0.8544921875,4,82
2025/07/05 10:06:07.471,3.8,0.154884187821262,0.0925557464438792,0,0.0444912638488497,0.184584716387683,0.115360152541621,0.100464958645875,0,0,0,0,0, ,-1.00927734375,-0.1044921875,0.0205078125,11.65771484375,-4.0283203125,-8.056640625,4,82
2025/07/05 10:06:07.571,3.9,0.15850861013889,0.0915659317414424,0,0.0946898353417485,0.250544949292728,0.136150202975144,0.163949111671922,0,0,0,0,0, ,-1.25341796875,-0.18603515625,0.00439453125,8.1787109375,-11.474609375,0.244140625,4,82
2025/07/05 10:06:07.671,4.0,0.16224779313653,0.0907056971731151,0,0.148080624823984,0.334971990333127,0.162259922491838,0.231064212332533,0,0,0,0,0, ,-0.98876953125,-0.05419921875,0.0361328125,-3.2958984375,-6.4697265625,-2.3193359375,4,82
2025/07/05 10:06:07.771,4.1,0.166049761432554,0.0893709958773326,0,0.148080624823984,0.314462146468661,0.138755048006966,0.191804336504124,0,0,0,0,0, ,-0.95654296875,-0.1044921875,0.033203125,0.1220703125,-7.62939453125,-5.4931640625,4,82
2025/07/05 10:06:07.871,4.2,0.169358422794483,0.0879035540055386,0,0.142715817522288,0.270793747275598,0.0972395013446841,0.122455098216756,0,0,0,0,0, ,-1.0166015625,-0.16943359375,0.07666015625,-21.17919921875,-7.62939453125,-6.89697265625,4,82
2025/07/05 10:06:07.971,4.3,0.17115220875918,0.0858667812154668,0,0.140035570915361,0.267896036429212,0.0894935665259604,0.108699931562275,0,0,0,0,0, ,-1.00732421875,-0.15283203125,0.068359375,-13.671875,-5.2490234375,-4.57763671875,4,82
2025/07/05 10:06:08.071,4.4,0.171500350504367,0.0836648147366042,0,0.126655846780732,0.247658946369604,0.0817596130497122,0.089506050312457,0,0,0,0,0, ,-1.00439453125,-0.1064453125,0.06884765625,-13.97705078125,-2.86865234375,1.52587890625,4,82
2025/07/05 10:06:08.171,4.5,0.171778535248373,0.0811611962912446,0,0.0946898353417485,0.198850061087144,0.0535036944506202,0.021551757184465,0,0,0,0,0, ,-0.98095703125,-0.09716796875,0.05322265625,-7.62939453125,-0.91552734375,0.1220703125,4,82
2025/07/05 10:06:08.271,4.6,0.171490498176325,0.0784771608198511,0,0.142715817522288,0.265000003955839,0.0791842846767876,0.0922435263871297,0,0,0,0,0, ,-0.99462890625,-0.11279296875,0.06396484375,-0.6103515625,-2.197265625,-7.50732421875,4,82
2025/07/05 10:06:08.371,4.7,0.171043946252643,0.0753852492039307,0,0.207476570781468,0.349673559071035,0.12574437211108,0.208592264728195,0,0,0,0,0, ,-0.982421875,-0.12744140625,0.07080078125,2.38037109375,-5.31005859375,-2.8076171875,4,82
2025/07/05 10:06:08.471,4.8,0.170616001066112,0.0729128122940894,0,0.223798674260286,0.37624580899254,0.138755048006966,0.228249689361792,0,0,0,0,0, ,-0.99658203125,-0.15576171875,0.09130859375,6.16455078125,-3.60107421875,-2.44140625,4,82
2025/07/05 10:06:08.571,4.9,0.17104015291736,0.0705098478595963,0,0.229251237423864,0.385134700090082,0.138755048006966,0.219815613830072,0,0,0,0,0, ,-0.998046875,-0.1845703125,0.0908203125,5.615234375,0.6103515625,-2.62451171875,4,82
2025/07/05 10:06:08.671,5.0,0.171362628517105,0.0681946027301414,0,0.229251237423864,0.382169980213423,0.136150202975144,0.205790359401023,0,0,0,0,0, ,-0.99169921875,-0.1748046875,0.07861328125,4.150390625,0.732421875,-2.01416015625,4,82
2025/07/05 10:06:08.771,5.1,0.170279134029651,0.06590591211738,0,0.207476570781468,0.352619067212474,0.12574437211108,0.172289397051127,0,0,0,0,0, ,-0.98681640625,-0.18359375,0.0625,4.638671875,1.03759765625,-1.77001953125,4,82
2025/07/05 10:06:08.871,5.2,0.168531057568888,0.0638810327428311,0,0.174991346004126,0.302779898337643,0.107586116367346,0.125210678295041,0,0,0,0,0, ,-0.9794921875,-0.181640625,0.05322265625,-0.42724609375,-0.732421875,-1.89208984375,4,82
2025/07/05 10:06:08.971,5.3,0.167027180635327,0.0631797968452205,0,0.229251237423864,0.385134700090082,0.146577735274868,0.217007413854264,0,0,0,0,0, ,-0.97412109375,-0.19580078125,0.04833984375,0.48828125,-1.953125,-3.35693359375,4,82
2025/07/05 10:06:09.072,5.4,0.165546341626679,0.0629101782278266,0,0.289625186305681,0.477923952460602,0.199044113072253,0.333456867524466,0,0,0,0,0, ,-0.984375,-0.20263671875,0.05419921875,-5.79833984375,-2.5634765625,-1.89208984375,4,82
2025/07/05 10:06:09.172,5.5,0.164294880158993,0.0614638499683533,0,0.308988972321361,0.496083778447821,0.206961770982492,0.339207299354965,0,0,0,0,0, ,-0.9775390625,-0.2041015625,0.052734375,-8.85009765625,-4.2724609375,-1.5869140625,4,82
2025/07/05 10:06:09.272,5.6,0.162907056526014,0.0594670269474633,0,0.314535284510142,0.496083778447821,0.201681939525148,0.316245146826077,0,0,0,0,0, ,-0.98779296875,-0.19091796875,0.06396484375,-8.9111328125,-3.84521484375,-1.708984375,4,82
2025/07/05 10:06:09.372,5.7,0.161164198435013,0.0578445767405142,0,0.311761359376306,0.480946013553203,0.191138973203455,0.284843388356251,0,0,0,0,0, ,-0.98828125,-0.177734375,0.07568359375,-0.732421875,-3.72314453125,0.18310546875,4,82
2025/07/05 10:06:09.472,5.8,0.15913644686247,0.0560380238802575,0,0.289625186305681,0.441800978300723,0.167498267575998,0.231064212332533,0,0,0,0,0, ,-0.98486328125,-0.19580078125,0.0791015625,5.4931640625,-0.1220703125,-0.3662109375,4,82
2025/07/05 10:06:09.572,5.9,0.157064031309387,0.0547342537007917,0,0.270336102323057,0.40891595740896,0.141361250789712,0.180643617750728,0,0,0,0,0, ,-0.9833984375,-0.19384765625,0.07080078125,8.23974609375,-1.28173828125,-0.244140625,4,82
2025/07/05 10:06:09.672,6.0,0.15629794108385,0.0546624804415814,0,0.345150464591797,0.502151740267195,0.180618190940908,0.293387964503772,0,0,0,0,0, ,-0.98681640625,-0.2041015625,0.072265625,11.474609375,-1.46484375,-0.91552734375,4,82
2025/07/05 10:06:09.772,6.1,0.155921651654448,0.0557001339957786,0,0.38438833353741,0.520399935433023,0.214891986642496,0.373849469748577,0,0,0,0,0, ,-0.98486328125,-0.20361328125,0.07421875,10.07080078125,-0.1220703125,-0.9765625,4,82
2025/07/05 10:06:09.872,6.2,0.155131417455154,0.0567954779917243,0,0.359128667504844,0.426826424054596,0.228137027303014,0.342084997233246,0,0,0,0,0, ,-0.9853515625,-0.20361328125,0.06396484375,11.5966796875,1.52587890625,2.0751953125,4,82
2025/07/05 10:06:09.972,6.3,0.154263816135262,0.0579645844536063,0,0.3787640360653,0.40891595740896,0.217538189363957,0.333456867524466,0,0,0,0,0, ,-0.984375,-0.20068359375,0.060546875,12.39013671875,-0.8544921875,1.3427734375,4,82
2025/07/05 10:06:10.072,6.4,0.152286975240167,0.0583339148999728,0,0.38438833353741,0.337908847936209,0.206961770982492,0.284843388356251,0,0,0,0,0, ,-0.986328125,-0.205078125,0.06396484375,8.544921875,-1.3427734375,0.732421875,4,82
2025/07/05 10:06:10.172,6.5,0.149372095155174,0.0589058267834201,0,0.333995970449675,0.184584716387683,0.180618190940908,0.208592264728195,0,0,0,0,0, ,-0.986328125,-0.205078125,0.06396484375,8.544921875,-1.3427734375,0.732421875,4,82
2025/07/05 10:06:10.272,6.6,0.146077645719533,0.0598821875590982,0,0.297914770838615,0.0858509031847587,0.143968812739551,0.139011404488328,0,0,0,0,0, ,-0.9892578125,-0.19677734375,0.064453125,5.0048828125,-0.42724609375,0.06103515625,4,82
2025/07/05 10:06:10.372,6.7,0.142618930450213,0.0604395293345857,0,0.331211230792342,0.111053980534899,0.157027059716458,0.200191254756013,0,0,0,0,0, ,-0.9873046875,-0.1982421875,0.060546875,1.708984375,-1.708984375,0.79345703125,4,82
2025/07/05 10:06:10.472,6.8,0.137817813403181,0.0621409772271708,0,0.429611931155752,0.221759608271324,0.230790250992492,0.370953437275204,0,0,0,0,0, ,-0.9912109375,-0.19091796875,0.068359375,0.3662109375,-4.2724609375,3.11279296875,4,82
2025/07/05 10:06:10.572,6.9,0.129433282613557,0.0643397766483972,0,0.452378048691369,0.210291713506712,0.268083976875152,0.370953437275204,0,0,0,0,0, ,-0.99267578125,-0.1875,0.0712890625,0.3662109375,-2.13623046875,2.5634765625,4,82
2025/07/05 10:06:10.672,7.0,0.118404720215306,0.0664138381069768,0,0.498223641408864,0.13074458234217,0.252066878526137,0.327713041590689,0,0,0,0,0, ,-0.9853515625,-0.173828125,0.06689453125,-1.3427734375,-2.3193359375,4.82177734375,4,82
2025/07/05 10:06:10.772,7.1,0.106720737165345,0.0676776749127529,0,0.700894555000897,0.0914406186081713,0.214891986642496,0.208592264728195,0,0,0,0,0, ,-0.9970703125,-0.173828125,0.07275390625,-3.35693359375,-2.13623046875,7.87353515625,4,82
2025/07/05 10:06:10.872,7.2,0.0945373220595079,0.0672183391206867,0,1.03879811927032,0.224630696449837,0.233444883348714,0.0594923180715683,0,0,0,0,1, ,-1.00146484375,-0.16357421875,0.0751953125,-3.11279296875,-1.46484375,2.50244140625,4,82
2025/07/05 10:06:10.972,7.3,0.0818144674558459,0.065526217527218,0,1.4358054957931,0.373286353490045,0.284152549651191,-0.0107411425313924,0,0,0,0,1, ,-0.99365234375,-0.1572265625,0.07421875,-2.0751953125,-2.25830078125,0.67138671875,4,82
2025/07/05 10:06:11.072,7.4,0.0680190736856033,0.0638575810147596,0,1.65948496166697,0.385134700090082,0.278790618922327,-0.0374934798969067,0,0,0,0,1, ,-1.00146484375,-0.15283203125,0.07177734375,-1.89208984375,-1.0986328125,0.18310546875,4,82
2025/07/05 10:06:11.173,7.5,0.0507712766761095,0.0609763050059065,0,1.72895591368184,0.411896583384259,0.276111808290077,-0.0268097153074311,0,0,0,0,1, ,-0.98876953125,-0.15234375,0.0693359375,-0.732421875,-2.25830078125,0.42724609375,4,82
2025/07/05 10:06:11.273,7.6,0.025068678257734,0.0581131830852586,0,1.7956729885561,0.61265347362392,0.359829668849017,0.166727661299133,0,0,0,0,1, ,-0.99365234375,-0.15380859375,0.06884765625,-1.03759765625,-2.13623046875,0.18310546875,4,82
2025/07/05 10:06:11.373,7.7,-0.0103785086934483,0.0549893291680815,40.6779661016949,1.7994057247694,0.659426498763049,0.411842181995293,0.270634797022838,0,0,0,0,0, ,-0.99267578125,-0.15673828125,0.068359375,-0.18310546875,-1.8310546875,0,4,82
2025/07/05 10:06:11.473,7.8,-0.0535473012357847,0.0509392818744484,61.0169491525424,1.76591099636311,0.61265347362392,0.41459472812894,0.293387964503772,0,0,0,0,0, ,-0.98828125,-0.15673828125,0.0693359375,0.54931640625,-2.62451171875,-0.244140625,4,82
2025/07/05 10:06:11.573,7.9,-0.101645118623659,0.0462909684775933,67.9135008766803,1.75109617093059,0.572467786499489,0.411842181995293,0.310521047831707,0,0,0,0,0, ,-0.9912109375,-0.15966796875,0.06884765625,1.3427734375,-2.74658203125,-0.18310546875,4,82
2025/07/05 10:06:11.673,8.0,-0.148898418115787,0.0402920042486267,71.5901088424946,1.616100742185,0.435805773834852,0.422861470037694,0.301947167607612,0,0,0,0,0, ,-0.99560546875,-0.1591796875,0.07080078125,0.42724609375,-1.89208984375,0,4,82
2025/07/05 10:06:11.773,8.1,-0.195748642051997,0.0335241706763857,73.9086048806661,1.50573670462474,0.302779898337643,0.417348790399339,0.279155105688708,0,0,0,0,0, ,-0.98876953125,-0.1552734375,0.0712890625,1.64794921875,-1.708984375,-0.79345703125,4,82
2025/07/05 10:06:11.873,8.2,-0.24259404303121,0.0275965795291947,75.4634398525554,1.44275476713482,0.201708020539346,0.392616671091248,0.242338174099983,0,0,0,0,0, ,-0.99072265625,-0.16015625,0.0703125,1.15966796875,-1.89208984375,-0.9765625,4,82
2025/07/05 10:06:11.973,8.3,-0.289728676412048,0.0206286312926329,76.6034673915243,1.34633304774359,0.0635543225331796,0.351666401851233,0.180643617750728,0,0,0,0,1, ,-0.9873046875,-0.16845703125,0.068359375,2.197265625,-1.5869140625,-0.3662109375,4,82
2025/07/05 10:06:12.073,8.4,-0.336311075242231,0.0132290657758543,77.4816820091354,1.29881062689391,0.0496692818813234,0.351666401851233,0.200191254756013,0,0,0,0,0, ,-0.98876953125,-0.16845703125,0.06884765625,1.220703125,-1.64794921875,-0.1220703125,4,82
2025/07/05 10:06:12.173,8.5,-0.381121369444882,0.00615258429453114,78.1821776554105,1.37026471700604,0.259212966359013,0.42562009075622,0.373849469748577,0,0,0,0,0, ,-0.994140625,-0.15966796875,0.0673828125,1.5869140625,-1.220703125,-0.06103515625,4,82
2025/07/05 10:06:12.273,8.6,-0.42570498293393,-0.000734195232171479,78.7548140745114,1.35315898726857,0.27949696953483,0.442203853639072,0.420415579788026,0,0,0,0,0, ,-0.98974609375,-0.1689453125,0.064453125,1.5869140625,-1.708984375,0.6103515625,4,82
2025/07/05 10:06:12.373,8.7,-0.468806257493587,-0.00738987700428693,79.2233347810485,1.29543338939604,0.218890167776218,0.428380234312647,0.402902427292983,0,0,0,0,0, ,-0.98681640625,-0.16357421875,0.06494140625,0.79345703125,-2.13623046875,-0.54931640625,4,82
2025/07/05 10:06:12.473,8.8,-0.511362587906931,-0.0134656414761111,79.6576797101885,1.22503330016368,0.150513034796739,0.439436070603826,0.402902427292983,0,0,0,0,0, ,-0.99365234375,-0.17529296875,0.06787109375,0.8544921875,-2.44140625,-0.18310546875,4,82
2025/07/05 10:06:12.573,8.9,-0.55419007946989,-0.0186252511302283,80.0252023425377,1.12615071175486,0.0385889451018775,0.42562009075622,0.370953437275204,0,0,0,0,0, ,-0.98974609375,-0.166015625,0.0693359375,0.732421875,-2.01416015625,0,4,82
2025/07/05 10:06:12.673,9.0,-0.598080032427413,-0.0241610033334536,80.3402217416942,1.03879811927032,-0.0735908612735181,0.387137218569713,0.307661453858711,0,0,0,0,0, ,-0.98681640625,-0.16943359375,0.06298828125,1.40380859375,-1.52587890625,1.5869140625,4,82
2025/07/05 10:06:12.773,9.1,-0.643753906866526,-0.0299292709906071,80.6132385542965,0.971896835451045,-0.172710098198934,0.351666401851233,0.245160640968888,0,0,0,0,0, ,-0.9931640625,-0.16748046875,0.068359375,-0.42724609375,-3.2958984375,1.220703125,4,82
2025/07/05 10:06:12.873,9.2,-0.689509952190882,-0.0358224783780431,80.8521282653235,0.952945454864539,-0.23596871647449,0.302964718835021,0.169507755852545,0,0,0,0,0, ,-0.982421875,-0.16162109375,0.06787109375,0.06103515625,-2.62451171875,1.52587890625,4,82
2025/07/05 10:06:12.973,9.3,-0.732768270641927,-0.0422077847104625,81.0629133044649,0.946644256896995,-0.241204318969101,0.268083976875152,0.125210678295041,0,0,0,0,0, ,-0.98876953125,-0.1650390625,0.07421875,-0.91552734375,-2.8076171875,0.48828125,4,82
2025/07/05 10:06:13.073,9.4,-0.772724034103669,-0.0477933150273663,81.2210037790179,1.09361969312592,0.0468968948263777,0.321847934955316,0.276313389257857,0,0,0,0,0, ,-0.9912109375,-0.1591796875,0.07373046875,-0.91552734375,-2.50244140625,0.6103515625,4,82
2025/07/05 10:06:13.173,9.5,-0.811453459641442,-0.0525115773468527,81.3560110972597,1.14249593692082,0.136384740780618,0.340802736685604,0.333456867524466,0,0,0,0,0, ,-0.99267578125,-0.16015625,0.076171875,-1.3427734375,-2.685546875,-0.1220703125,4,82
2025/07/05 10:06:13.273,9.6,-0.849634801497686,-0.0570961747366453,81.4775176836773,1.12615071175486,0.108247356871256,0.319145962489943,0.307661453858711,0,0,0,0,0, ,-0.98583984375,-0.1591796875,0.076171875,-0.8544921875,-2.62451171875,-0.54931640625,4,82
2025/07/05 10:06:13.374,9.7,-0.887137736953968,-0.0608905413779896,81.5874522142456,1.10335679440281,0.0914406186081713,0.29758258707153,0.281998438108519,0,0,0,0,0, ,-0.990234375,-0.166015625,0.0771484375,-0.1220703125,-2.9296875,-1.220703125,4,82
2025/07/05 10:06:13.474,9.8,-0.922575659891003,-0.0654460990615813,81.6802582196168,1.0645216482932,0.0358226933436319,0.265410894787698,0.233880320503566,0,0,0,0,0, ,-0.99072265625,-0.166015625,0.08154296875,-0.30517578125,-2.9296875,-0.1220703125,4,82
2025/07/05 10:06:13.574,9.9,-0.95497379878385,-0.0705398944866058,81.7649941375645,1.00364297337129,-0.0546155067135148,0.222834799949828,0.169507755852545,0,0,0,0,0, ,-0.9921875,-0.166015625,0.08203125,0.3662109375,-2.99072265625,0,4,82
2025/07/05 10:06:13.674,10.0,-0.984238071904011,-0.0763773291123191,81.8426687290165,0.943496633295724,-0.154107897906614,0.177991450704244,0.0977229789086649,0,0,0,0,0, ,-0.99658203125,-0.1640625,0.08349609375,0.30517578125,-1.89208984375,-1.28173828125,4,82
2025/07/05 10:06:13.774,10.1,-1.01288276349278,-0.0820840748045035,81.9067072848693,0.871642851717141,-0.277700830833318,0.130944580510661,0.0188527018285085,0,0,0,0,0, ,-0.99365234375,-0.171875,0.0869140625,0.9765625,-1.953125,-0.48828125,4,82
2025/07/05 10:06:13.874,10.2,-1.04067999016337,-0.085269279344249,81.9590339014592,0.849977698984669,-0.264696922526805,0.123146294668631,0.021551757184465,0,0,0,0,0, ,-0.9853515625,-0.17138671875,0.0869140625,1.46484375,-1.708984375,-0.1220703125,4,82
2025/07/05 10:06:13.974,10.3,-1.06684464363904,-0.0859765493988846,82.0027265815435,0.946644256896995,-0.024650830171967,0.185875814901165,0.183431462777228,0,0,0,0,0, ,-0.9873046875,-0.17431640625,0.0810546875,1.8310546875,-1.64794921875,-0.18310546875,4,82
2025/07/05 10:06:14.074,10.4,-1.09060321027574,-0.0854480177556914,82.0221468952783,0.952945454864539,0,0.206961770982492,0.222625391889682,0,0,0,0,0, ,-0.984375,-0.17529296875,0.07861328125,1.28173828125,-0.9765625,-0.244140625,4,82
2025/07/05 10:06:14.174,10.5,-1.11048223581267,-0.0831958440486333,82.0232549074723,0.921518576258032,-0.0355678649140083,0.199044113072253,0.21139574107049,0,0,0,0,0, ,-0.98876953125,-0.17919921875,0.07666015625,1.46484375,-1.0986328125,1.8310546875,4,82
2025/07/05 10:06:14.274,10.6,-1.12193260068384,-0.0807952121747857,82.0133750951511,0.880956731949305,-0.0654673827595573,0.193772631376274,0.200191254756013,0,0,0,0,0, ,-0.99951171875,-0.17626953125,0.0791015625,0.9765625,-0.18310546875,7.568359375,4,82
2025/07/05 10:06:14.374,10.7,-1.12373945958223,-0.0784257683166151,83.3640291434591,0.874745551118903,-0.100574196732207,0.183246311855815,0.161172105254802,0,0,0,0,0, ,-0.99951171875,-0.17626953125,0.0791015625,0.9765625,-0.18310546875,7.568359375,4,82
2025/07/05 10:06:14.474,10.8,-1.11838820755591,-0.0762488697163653,83.3330153312232,0.930925916616379,-0.0978824066669275,0.228137027303014,0.139011404488328,0,0,0,0,0, ,-0.9921875,-0.154296875,0.07275390625,0.3662109375,4.45556640625,11.29150390625,4,82
2025/07/05 10:06:14.574,10.9,-1.10854691288478,-0.0741231440187307,83.2649949171524,0.825331931644906,-0.217600813646133,0.335379742742391,0.158396640334524,0,0,0,0,0, ,-1.01025390625,-0.11669921875,0.0634765625,0.79345703125,3.84521484375,10.43701171875,4,82
2025/07/05 10:06:14.674,11.0,-1.0987705856904,-0.0708199813764981,83.1552180053878,0.679955248610542,-0.355021958169051,0.362553722267252,0.161172105254802,0,0,0,0,0, ,-1.00390625,-0.11376953125,0.05078125,1.953125,3.96728515625,12.6953125,4,82
2025/07/05 10:06:14.774,11.1,-1.08899425849603,-0.0662715301015043,83.0156838023677,0.727946018239036,-0.180661332197126,0.428380234312647,0.301947167607612,0,0,0,0,0, ,-1.0087890625,-0.0849609375,0.03515625,0.91552734375,6.7138671875,17.76123046875,4,82
2025/07/05 10:06:14.874,11.2,-1.0791730681339,-0.06227136674798,82.8666952793742,0.749087698471606,-0.0978824066669275,0.478325154959812,0.391260978668499,0,0,0,0,0, ,-1.0078125,-0.04296875,0.009765625,0.244140625,9.58251953125,25.146484375,4,82
2025/07/05 10:06:14.974,11.3,-1.06846966093446,-0.0599454316188997,82.7040983523871,0.694902942629635,-0.156769596093237,0.48949210527548,0.376747180594963,0,0,0,0,0, ,-0.99658203125,0.02001953125,-0.015625,-0.18310546875,7.568359375,22.03369140625,4,82
2025/07/05 10:06:15.074,11.4,-1.0573764796727,-0.0598597747392234,82.5300952382764,0.608821862606686,-0.249047457715362,0.478325154959812,0.347845366448138,0,0,0,0,0, ,-0.99169921875,0.07763671875,-0.03515625,2.01416015625,3.90625,13.97705078125,4,82
2025/07/05 10:06:15.174,11.5,-1.04789669417876,-0.0603931889423666,82.3508601743924,0.501102996470006,-0.390699988735704,0.439436070603826,0.284843388356251,0,0,0,0,0, ,-0.9873046875,0.09326171875,-0.04150390625,3.11279296875,1.5869140625,5.43212890625,4,82
2025/07/05 10:06:15.274,11.6,-1.03881163589251,-0.0617572037540168,82.1675451431481,0.421101290929918,-0.530919491153841,0.403593623744858,0.21139574107049,0,0,0,0,0, ,-0.986328125,0.09521484375,-0.05029296875,2.0751953125,-0.244140625,3.0517578125,4,82
2025/07/05 10:06:15.374,11.7,-1.03159825113175,-0.0634093094575812,81.9842301119038,0.359128667504844,-0.643228898755023,0.36800628543083,0.139011404488328,0,0,0,0,0, ,-0.986328125,0.0986328125,-0.046875,0.91552734375,-3.662109375,-2.44140625,4,82
2025/07/05 10:06:15.475,11.8,-1.02572368374779,-0.0652091875181321,81.7833506778492,0.278593742392373,-0.78133291418659,0.294893692182583,0.0296576761586769,0,0,0,0,0, ,-0.99462890625,0.07421875,-0.0400390625,2.685546875,-3.84521484375,-5.67626953125,4,82
2025/07/05 10:06:15.575,11.9,-1.01866956640253,-0.0678784170634598,81.5786191636714,0.31731074943042,-0.676915262439646,0.273434432094646,0.0622134065335547,0,0,0,0,0, ,-0.99462890625,0.04345703125,-0.04296875,1.220703125,-5.43212890625,-5.4931640625,4,82
2025/07/05 10:06:15.675,12.0,-1.01118458553567,-0.0707347627069451,81.3651463907522,0.35632989893163,-0.538321416895715,0.305657958827688,0.183431462777228,0,0,0,0,0, ,-0.978515625,0.0498046875,-0.03125,-0.3662109375,-5.0048828125,-13.12255859375,4,82
2025/07/05 10:06:15.775,12.1,-1.00213377836886,-0.0741744544936289,81.1460654423595,0.262092077494983,-0.525978779362993,0.294893692182583,0.214200790190621,0,0,0,0,0, ,-1.013671875,0.00537109375,-0.01611328125,-1.03759765625,-7.62939453125,-5.79833984375,4,82
2025/07/05 10:06:15.875,12.2,-0.991552340898996,-0.076073209407052,80.918316437885,0.145397501644225,-0.349904250531375,0.244077529408711,0.239517299596109,0,0,0,0,0, ,-1.0029296875,0.00439453125,-0.00927734375,-1.8310546875,-3.47900390625,-1.953125,4,82
2025/07/05 10:06:15.975,12.3,-0.982679226464722,-0.0772662432232276,80.6905674334105,0.0576526295043371,-0.319087512452236,0.204321158338336,0.161172105254802,0,0,0,0,0, ,-1.001953125,0.00439453125,-0.0029296875,-1.03759765625,-3.7841796875,-2.13623046875,4,82
2025/07/05 10:06:16.075,12.4,-0.974654529754507,-0.0791169331922462,80.465919642367,0.00521376473258561,-0.390699988735704,0.146577735274868,0.0676600300846686,0,0,0,0,0, ,-1.005859375,0.0029296875,0.00537109375,0.8544921875,-3.84521484375,-6.16455078125,4,82
2025/07/05 10:06:16.175,12.5,-0.965709521845368,-0.0819579217838517,80.2343933148848,-0.0389308994475832,-0.45629124118251,0.0817596130497122,-0.0241352033819369,0,0,0,0,0, ,-1.013671875,-0.01708984375,-0.00634765625,4.82177734375,-2.38037109375,-3.5400390625,4,82
2025/07/05 10:06:16.275,12.6,-0.954338560831381,-0.0858528267190342,80.0138254912016,-0.0980423554809366,-0.518558545611088,0.0356054398598102,-0.111647380326768,0,0,0,0,0, ,-0.9873046875,-0.04833984375,-0.0166015625,2.9296875,-5.7373046875,0.54931640625,4,82
2025/07/05 10:06:16.375,12.7,-0.93994017430675,-0.0899450679099531,79.8077208568977,-0.133684053733054,-0.530919491153841,0.0203149082935523,-0.127395424606585,0,0,0,0,0, ,-0.99267578125,-0.00390625,0.04248046875,1.708984375,-11.65771484375,5.615234375,4,82
2025/07/05 10:06:16.475,12.8,-0.922506615607699,-0.0921600139660362,79.606848172367,-0.00781046749630443,-0.306190935981971,0.0817596130497122,0.0676600300846686,0,0,0,0,0, ,-1.00439453125,0.048828125,0.072265625,13.85498046875,-10.3759765625,6.34765625,4,82
2025/07/05 10:06:16.575,12.9,-0.902258448892477,-0.0911449106020867,79.3994613576833,0.0550175833693078,-0.201803012429696,0.0998241485593825,0.139011404488328,0,0,0,0,0, ,-0.99755859375,0.00732421875,0.00634765625,20.56884765625,0.732421875,2.99072265625,4,82
2025/07/05 10:06:16.675,13.0,-0.880516309070048,-0.0894811416138067,79.1920745429997,0.0366110416889458,-0.214971310600784,0.0817596130497122,0.0922435263871297,0,0,0,0,0, ,-0.98974609375,0.01171875,0.029296875,3.173828125,-5.7373046875,6.7138671875,4,82
2025/07/05 10:06:16.775,13.1,-0.857231404491477,-0.0872464862527986,78.9908727852186,0.0156576326039177,-0.204439447990646,0.0766102820842942,0.0649359766664337,0,0,0,0,0, ,-0.99169921875,0.05029296875,0.06201171875,0.06103515625,-4.69970703125,-3.35693359375,4,82
2025/07/05 10:06:16.875,13.2,-0.832826809668746,-0.0855934266534917,78.7955521377418,-0.0208008617233757,-0.23334885792595,0.0509428749705738,0.0107642666451051,0,0,0,0,0, ,-0.99755859375,-0.0234375,0.05322265625,6.89697265625,-5.92041015625,-4.8828125,4,82
2025/07/05 10:06:16.975,13.3,-0.807494688385108,-0.0857890223262539,78.6045135920141,-0.0544187794374666,-0.259485874712237,0.0279543290699826,-0.0241352033819369,0,0,0,0,0, ,-1.029296875,-0.01806640625,0.0869140625,3.72314453125,-7.080078125,-2.13623046875,4,82
2025/07/05 10:06:17.075,13.4,-0.782820318919709,-0.0877420952850254,78.4332164095402,-0.0826892218448911,-0.301022976942566,0.0076084213395311,-0.0641034411900914,0,0,0,0,0, ,-1.0205078125,0.01953125,0.07373046875,5.55419921875,-0.30517578125,-0.8544921875,4,82
2025/07/05 10:06:17.175,13.5,-0.758244998980483,-0.0892211048076952,78.2454846337845,-0.123526610066106,-0.385618687561089,-0.0353536821191969,-0.145705672366313,0,0,0,0,0, ,-0.99853515625,-0.00048828125,0.04248046875,5.615234375,1.52587890625,3.11279296875,4,82
2025/07/05 10:06:17.275,13.6,-0.733327748125045,-0.0906056733720636,78.0463652985612,-0.0903716816284983,-0.311353558975988,-0.0202327030781873,-0.0984860146712805,0,0,0,0,0, ,-0.9912109375,0.02099609375,0.037109375,-0.54931640625,-0.1220703125,2.38037109375,4,82
2025/07/05 10:06:17.375,13.7,-0.707979836531573,-0.0906396250130968,77.8416003373778,0.0287432195690327,-0.119376259972694,0.0535036944506202,0.0977229789086649,0,0,0,0,0, ,-1.005859375,0.00537109375,0.06005859375,0.48828125,-2.62451171875,-0.79345703125,4,82
2025/07/05 10:06:17.475,13.8,-0.681769547483346,-0.0903025873620896,77.6625710333485,0.0418631429339427,-0.0789991905466327,0.0637601081505745,0.133486542130064,0,0,0,0,0, ,-1.0146484375,-0.013671875,0.0625,0.6103515625,-1.3427734375,-3.23486328125,4,82
2025/07/05 10:06:17.575,13.9,-0.655806964613359,-0.0897803644524486,77.4763362155347,0.0366110416889458,-0.0654673827595573,0.0637601081505745,0.130726398573637,0,0,0,0,0, ,-0.9951171875,-0.00390625,0.05859375,-2.13623046875,-1.5869140625,-1.64794921875,4,82
2025/07/05 10:06:17.676,14.0,-0.630448401118856,-0.0890849276552942,77.2992206324594,0.0287432195690327,-0.0518988536037632,0.0663275022637211,0.125210678295041,0,0,0,0,0, ,-1.0068359375,0.00341796875,0.05078125,1.28173828125,-2.25830078125,-1.46484375,4,82
2025/07/05 10:06:17.776,14.1,-0.603324351718543,-0.0880855353280649,77.111555406721,-0.00520833372667351,-0.0681766756600353,0.0535036944506202,0.0922435263871297,0,0,0,0,0, ,-0.99609375,-0.00439453125,0.0546875,-0.42724609375,-3.23486328125,-1.64794921875,4,82
2025/07/05 10:06:17.876,14.2,-0.573112372401095,-0.0863649816353249,76.9114145735728,-0.0647174440990574,-0.0681766756600353,0.0356054398598102,0.0486227487354385,0,0,0,0,0, ,-0.98974609375,-0.005859375,0.04150390625,0.1220703125,0.3662109375,-3.173828125,4,82
2025/07/05 10:06:17.976,14.3,-0.543476809325197,-0.0829701997181409,76.7085059544028,-0.126067906143936,-0.111326888888122,0.0101471367662445,-0.0134228266533292,0,0,0,0,0, ,-0.99658203125,-0.021484375,0.04931640625,1.8310546875,-1.220703125,-4.21142578125,4,82
2025/07/05 10:06:18.076,14.4,-0.514954090636314,-0.0773351395515529,76.4995126429552,-0.151410078618602,-0.135436230714251,-0.00253356981630493,-0.0428268136564465,0,0,0,0,0, ,-1.02392578125,-0.0341796875,0.05712890625,2.01416015625,-3.662109375,-3.47900390625,4,82
2025/07/05 10:06:18.176,14.5,-0.486646012359249,-0.0708541657205164,76.2905193315077,-0.0259875841029009,0.0691191532973594,0.0740376039079083,0.144542378421243,0,0,0,0,0, ,-1.005859375,-0.06201171875,0.04638671875,-4.39453125,-1.708984375,-1.03759765625,4,82
2025/07/05 10:06:18.276,14.6,-0.458958964533424,-0.0634974226666285,76.0702201975616,0.0366110416889458,0.218890167776218,0.12574437211108,0.281998438108519,0,0,0,0,0, ,-1.0048828125,-0.03759765625,0.09716796875,-14.09912109375,-2.25830078125,-1.89208984375,4,82
2025/07/05 10:06:18.376,14.7,-0.430886839227762,-0.055761562846657,75.8483246396052,0.0287432195690327,0.253432618980554,0.133546714280292,0.293387964503772,0,0,0,0,0, ,-1.0244140625,0.01611328125,0.07958984375,-10.43701171875,13.5498046875,3.60107421875,4,82
2025/07/05 10:06:18.476,14.8,-0.401687749146163,-0.0480684929285712,75.6241178335749,0.0287432195690327,0.27949696953483,0.128343800256706,0.276313389257857,0,0,0,0,0, ,-1.0244140625,0.01611328125,0.07958984375,-10.43701171875,13.5498046875,3.60107421875,4,82
2025/07/05 10:06:18.576,14.9,-0.370516869943933,-0.0403164482756476,75.4053595316781,0.00782268726790258,0.270793747275598,0.115360152541621,0.245160640968888,0,0,0,0,0, ,-0.94921875,-0.04150390625,-0.0048828125,1.77001953125,12.87841796875,-4.21142578125,4,82
2025/07/05 10:06:18.676,15.0,-0.334561952265674,-0.0317796863758853,75.1953424885225,-0.0415155466622816,0.213156222279127,0.0998241485593825,0.205790359401023,0,0,0,0,0, ,-0.99267578125,-0.0908203125,0.013671875,-2.44140625,3.84521484375,-2.25830078125,4,82
2025/07/05 10:06:18.776,15.1,-0.296094059712469,-0.0227242390454293,74.9909336208405,-0.0749949398563912,0.190285971196386,0.0920742117060844,0.183431462777228,0,0,0,0,0, ,-1.02685546875,-0.0419921875,0.0263671875,2.9296875,8.36181640625,-2.685546875,4,82
2025/07/05 10:06:18.876,15.2,-0.258705690359236,-0.0153010527969261,74.7975040573144,-0.0954867715124501,0.178889955036886,0.0740376039079083,0.144542378421243,0,0,0,0,0, ,-0.984375,-0.06884765625,-0.046875,7.6904296875,15.625,-7.99560546875,4,82
2025/07/05 10:06:18.976,15.3,-0.222272912188329,-0.00794286702306837,74.6040744937882,0.00260620278274626,0.337908847936209,0.141361250789712,0.296239404515751,0,0,0,0,0, ,-0.98095703125,-0.10400390625,-0.11865234375,-1.64794921875,15.93017578125,-22.27783203125,4,82
2025/07/05 10:06:19.076,15.4,-0.1870279678709,0.000816355008717936,74.4251081196412,0.062926891518182,0.450807285014719,0.206961770982492,0.437990290063366,0,0,0,0,0, ,-0.9853515625,-0.1650390625,-0.15478515625,-19.6533203125,13.97705078125,-24.4140625,4,82
2025/07/05 10:06:19.176,15.5,-0.15227389204051,0.0103558261675961,74.2571002492932,0.0576526295043371,0.474903716835398,0.238758380050147,0.488123413532788,0,0,0,0,0, ,-0.9736328125,-0.171875,-0.2294921875,-31.79931640625,23.92578125,-11.29150390625,4,82
2025/07/05 10:06:19.276,15.6,-0.119511363472397,0.0206666822701793,74.0758226270723,0.052383925196489,0.493052556817854,0.268083976875152,0.529790320707624,0,0,0,0,0, ,-0.91259765625,-0.18896484375,-0.36669921875,-34.5458984375,19.04296875,-2.25830078125,4,82
2025/07/05 10:06:19.376,15.7,-0.0886454164458439,0.0310228988344462,73.8766335396101,0.00521376473258561,0.441800978300723,0.289520236613827,0.544755910825279,0,0,0,0,0, ,-0.94091796875,-0.1435546875,-0.36572265625,-30.2734375,-1.64794921875,-2.197265625,4,82
2025/07/05 10:06:19.476,15.8,-0.0596765212778737,0.0410476572719592,73.6774444521479,-0.0569954349572535,0.370328648626812,0.294893692182583,0.523816604434925,0,0,0,0,0, ,-0.94287109375,-0.12060546875,-0.3125,-22.3388671875,-12.451171875,5.67626953125,4,82
2025/07/05 10:06:19.576,15.9,-0.0321036976368293,0.0492238754190229,73.4847694948387,-0.113348489654782,0.296948993973618,0.270758488800646,0.45857250053184,0,0,0,0,0, ,-0.9306640625,-0.1171875,-0.24609375,-20.93505859375,-17.51708984375,7.26318359375,4,82
2025/07/05 10:06:19.676,16.0,-0.00635276806306038,0.0567463352253452,73.2955428133915,-0.181652105847364,0.195993734288247,0.228137027303014,0.359386052299919,0,0,0,0,0, ,-0.9619140625,-0.03857421875,-0.17724609375,-17.02880859375,-16.7236328125,13.36669921875,4,82
2025/07/05 10:06:19.777,16.1,0.017855396754567,0.0641117693431191,73.1086273800183,-0.110800718936983,0.27949696953483,0.244077529408711,0.411651335781552,0,0,0,0,0, ,-0.98681640625,-0.04150390625,-0.17724609375,0.42724609375,-10.1318359375,3.47900390625,4,82
2025/07/05 10:06:19.877,16.2,0.041488751619844,0.0718693964619372,72.9217119466451,0.0156576326039177,0.432810865134652,0.289520236613827,0.547754411620088,0,0,0,0,0, ,-0.98583984375,-0.08447265625,-0.1845703125,7.32421875,-14.16015625,2.25830078125,4,82
2025/07/05 10:06:19.977,16.3,0.0647559280926442,0.0811321831971769,72.7347965132719,0.0104329718093044,0.444801278376045,0.29758258707153,0.562773948073282,0,0,0,0,0, ,-1.0166015625,-0.06591796875,-0.146484375,2.25830078125,-14.34326171875,0.67138671875,4,82
2025/07/05 10:06:20.077,16.4,0.0874857597768506,0.0917030547558398,72.5565125927675,-0.00260484503182168,0.432810865134652,0.29220624254761,0.544755910825279,0,0,0,0,0, ,-0.9755859375,-0.0576171875,-0.09375,3.72314453125,-12.02392578125,0.8544921875,4,82
2025/07/05 10:06:20.177,16.5,0.110042465872985,0.101456643442067,72.4110704694522,-0.0208008617233757,0.411896583384259,0.278790618922327,0.505938158954091,0,0,0,0,0, ,-1.01025390625,-0.09912109375,-0.09033203125,3.173828125,-2.01416015625,-8.23974609375,4,82
2025/07/05 10:06:20.277,16.6,0.132292401548473,0.110685177585904,72.298157799519,-0.0466808363008813,0.370328648626812,0.254732834294706,0.45857250053184,0,0,0,0,0, ,-0.99560546875,-0.08544921875,-0.1630859375,7.6904296875,8.056640625,-3.662109375,4,82
2025/07/05 10:06:20.377,16.7,0.154101684413978,0.118080308883781,72.2101296124529,-0.0801257765564962,0.329103445145931,0.241417247395705,0.429195213168525,0,0,0,0,0, ,-0.9462890625,-0.08251953125,-0.1923828125,12.63427734375,-1.8310546875,-0.3662109375,4,82
2025/07/05 10:06:20.477,16.8,0.175258611847934,0.125086975618414,72.1234918592021,-0.151410078618602,0.227503434205101,0.209603778930619,0.350728041607544,0,0,0,0,0, ,-0.9580078125,-0.1171875,-0.1484375,18.9208984375,-11.71875,0.54931640625,4,82
2025/07/05 10:06:20.577,16.9,0.196415539281891,0.132048703553524,72.0693771508517,-0.153937245680485,0.216022373074431,0.204321158338336,0.35361237968897,0,0,0,0,0, ,-0.986328125,-0.1240234375,-0.1142578125,10.07080078125,-17.08984375,6.7138671875,4,82
2025/07/05 10:06:20.677,17.0,0.21773839562951,0.139710929093167,72.016064991142,-0.00781046749630443,0.40891595740896,0.281470865529254,0.55075471169541,0,0,0,0,0, ,-1.02685546875,-0.10888671875,-0.03564453125,10.1318359375,-21.484375,6.28662109375,4,82
2025/07/05 10:06:20.777,17.1,0.237340725503868,0.147908785121779,71.9843045555704,0.0261233610204927,0.465853940744053,0.29758258707153,0.602037211767187,0,0,0,0,0, ,-1.009765625,-0.0595703125,0.01904296875,6.65283203125,-12.939453125,10.92529296875,4,82
2025/07/05 10:06:20.877,17.2,0.253810262293337,0.155220042530373,71.9726398580936,0.0182720117094921,0.459829843719567,0.284152549651191,0.562773948073282,0,0,0,0,0, ,-0.9990234375,0.0126953125,0.0048828125,10.1318359375,-4.33349609375,4.5166015625,4,82
2025/07/05 10:06:20.977,17.3,0.269973998487035,0.162280412335406,71.9718745206698,0.00782268726790258,0.423836887388259,0.254732834294706,0.50296462337701,0,0,0,0,0, ,-0.970703125,-0.03076171875,-0.02490234375,6.16455078125,-7.26318359375,-0.06103515625,4,82
2025/07/05 10:06:21.077,17.4,0.285963609633964,0.168952317577194,71.9930018176018,-0.0389308994475832,0.346729785111703,0.222834799949828,0.420415579788026,0,0,0,0,0, ,-1.00341796875,-0.06298828125,-0.00244140625,0.79345703125,-4.82177734375,-6.34765625,4,82
2025/07/05 10:06:21.177,17.5,0.301274444931699,0.174096626170784,72.0127386807185,-0.0826892218448911,0.282401413372234,0.193772631376274,0.362275390678788,0,0,0,0,0, ,-1.01953125,-0.1171875,0.01416015625,2.8076171875,-3.96728515625,-6.89697265625,4,82
2025/07/05 10:06:21.277,17.6,0.317187413988768,0.178758107687592,72.054368178191,-0.115894962806587,0.2332538660356,0.172742106468281,0.324843601095583,0,0,0,0,0, ,-1.00146484375,-0.0771484375,0.02490234375,9.033203125,-0.18310546875,1.220703125,4,82
2025/07/05 10:06:21.377,17.7,0.332319585056074,0.182503550021233,72.0997035441304,-0.0878121730363919,0.27949696953483,0.185875814901165,0.365166399678378,0,0,0,0,0, ,-1.01171875,-0.09375,0.02734375,9.21630859375,3.7841796875,-2.197265625,4,82
2025/07/05 10:06:21.477,17.8,0.348041055583911,0.187969495173991,72.1548667945624,0.0392364026972785,0.447803379892528,0.246739227595334,0.532779857373961,0,0,0,0,0, ,-0.998046875,-0.09130859375,-0.01708984375,5.7373046875,7.62939453125,-1.52587890625,4,82
2025/07/05 10:06:21.577,17.9,0.361676633565132,0.194717569645929,72.2084336209843,0.0682067229755261,0.496083778447821,0.26273924101027,0.580857150154764,0,0,0,0,0, ,-1.0029296875,-0.10302734375,-0.04296875,5.37109375,2.3193359375,-3.7841796875,4,82
2025/07/05 10:06:21.677,18.0,0.370544538146755,0.200680926871028,72.27085591523,0.0576526295043371,0.465853940744053,0.260069014017303,0.565783277038932,0,0,0,0,0, ,-0.98291015625,-0.064453125,-0.064453125,8.48388671875,-0.1220703125,2.50244140625,4,82
2025/07/05 10:06:21.777,18.1,0.3767878755478,0.206296742820164,72.3370673955558,0.0471207668941993,0.462840984988227,0.26273924101027,0.559766429230427,0,0,0,0,0, ,-0.98095703125,-0.0703125,-0.0546875,6.591796875,-10.25390625,-7.38525390625,4,82
2025/07/05 10:06:21.877,18.2,0.382402313901212,0.211478816512388,72.4013085380254,0.00521376473258561,0.397011190057645,0.236100925868274,0.488123413532788,0,0,0,0,0, ,-0.9931640625,-0.130859375,0.01318359375,0.06103515625,-14.0380859375,-6.16455078125,4,82
2025/07/05 10:06:21.978,18.3,0.387467318914289,0.215286780960905,72.4655496804951,-0.0208008617233757,0.32617175351958,0.217538189363957,0.435056878465296,0,0,0,0,0, ,-1.00634765625,-0.126953125,0.0341796875,5.31005859375,-9.94873046875,-6.34765625,4,82
2025/07/05 10:06:22.078,18.4,0.392081921311987,0.218439642147436,72.5294499127469,-0.0595707633301781,0.259212966359013,0.183246311855815,0.365166399678378,0,0,0,0,0, ,-0.9794921875,-0.09814453125,0.029296875,8.36181640625,-6.77490234375,-6.04248046875,4,82
2025/07/05 10:06:22.178,18.5,0.3962670809978,0.22119493417689,72.5933501449987,-0.0544187794374666,0.267896036429212,0.177991450704244,0.356498382612093,0,0,0,0,0, ,-0.96826171875,-0.16552734375,0.03662109375,-2.01416015625,-16.2353515625,-12.39013671875,4,82
2025/07/05 10:06:22.278,18.6,0.40089439250047,0.225032472147199,72.6599025355423,0.078783141356991,0.438802477505914,0.249402343464148,0.532779857373961,0,0,0,0,0, ,-1.0205078125,-0.150390625,0.109375,-9.6435546875,-11.53564453125,-10.19287109375,4,82
2025/07/05 10:06:22.378,18.7,0.404159047872744,0.229475312163219,72.729903201948,0.121313966010338,0.490023171735486,0.270758488800646,0.602037211767187,0,0,0,0,0, ,-0.9853515625,-0.23388671875,0.080078125,2.8076171875,-1.5869140625,-10.7421875,4,82
2025/07/05 10:06:22.478,18.8,0.405766590156876,0.232761449768486,72.7995629581358,0.129328928868186,0.511267512938934,0.265410894787698,0.611141918244435,0,0,0,0,0, ,-0.98486328125,-0.2734375,0.0908203125,-0.1220703125,2.3193359375,-8.6669921875,4,82
2025/07/05 10:06:22.578,18.9,0.406595310584427,0.234965321261159,72.8692227143236,0.142715817522288,0.550962377322992,0.278790618922327,0.644668407273158,0,0,0,0,0, ,-1.0380859375,-0.22607421875,0.0458984375,14.6484375,8.23974609375,3.0517578125,4,82
2025/07/05 10:06:22.678,19.0,0.406813857676184,0.237477609909291,72.9350932844315,0.142715817522288,0.584798248791719,0.281470865529254,0.650788358986407,0,0,0,0,0, ,-1.0380859375,-0.22607421875,0.0458984375,14.6484375,8.23974609375,3.0517578125,4,82
2025/07/05 10:06:22.778,19.1,0.406248887895126,0.240915559071841,72.9989935166833,0.140035570915361,0.597159194334472,0.284152549651191,0.656915810642357,0,0,0,0,0, ,-0.9208984375,-0.23046875,0.03955078125,8.72802734375,-8.11767578125,9.521484375,4,82
2025/07/05 10:06:22.878,19.2,0.406075246754476,0.244156371953321,73.0632346591529,0.0920352029855263,0.508227075067506,0.244077529408711,0.541759207154218,0,0,0,0,0, ,-0.99609375,-0.19140625,0.09912109375,-6.9580078125,-12.63427734375,7.87353515625,4,82
2025/07/05 10:06:22.978,19.3,0.40457335652505,0.24730551474862,73.1274758016226,0.132003440793681,0.557097347326417,0.244077529408711,0.574822146494516,0,0,0,0,0, ,-0.9990234375,-0.1611328125,0.12744140625,0.06103515625,-8.544921875,9.6435546875,4,82
2025/07/05 10:06:23.078,19.4,0.403538101692242,0.250366873860206,73.1830854312235,0.226524212580975,0.694006956739626,0.305657958827688,0.75286428117832,0,0,0,0,0, ,-0.98193359375,-0.15478515625,0.1279296875,8.1787109375,-5.18798828125,10.43701171875,4,82
2025/07/05 10:06:23.178,19.5,0.403003227653346,0.25404962633001,73.2386950608243,0.237441247323016,0.719307453104332,0.316445449367048,0.759118190593392,0,0,0,0,0, ,-1.0126953125,-0.14697265625,0.12353515625,1.0986328125,4.5166015625,13.18359375,4,82
2025/07/05 10:06:23.278,19.6,0.403160515614099,0.258612149229262,73.2840767535462,0.231979750411354,0.722479035783142,0.319145962489943,0.746618184269234,0,0,0,0,0, ,-0.99267578125,-0.08642578125,0.1005859375,2.38037109375,12.5732421875,17.2119140625,4,82
2025/07/05 10:06:23.378,19.7,0.404030386273596,0.264064135940685,73.3275211120399,0.21019322389122,0.671973556603213,0.29758258707153,0.700019525219596,0,0,0,0,0, ,-0.984375,-0.078125,0.064453125,3.72314453125,7.01904296875,6.89697265625,4,82
2025/07/05 10:06:23.478,19.8,0.405022915014149,0.269904587215351,73.3695750367183,0.153451194540644,0.575547552488757,0.252066878526137,0.592949054295989,0,0,0,0,0, ,-0.98828125,-0.0830078125,0.0625,2.9296875,0.3662109375,-2.01416015625,4,82
2025/07/05 10:06:23.578,19.9,0.406015443754701,0.275789977289541,73.4119698716146,0.0946898353417485,0.477923952460602,0.21224718365806,0.494054612241937,0,0,0,0,0, ,-1.009765625,-0.09130859375,0.06298828125,0.6103515625,-0.79345703125,-1.8310546875,4,82
2025/07/05 10:06:23.678,20.0,0.406557005043154,0.280500947797743,73.4557551403262,0.0814307452978569,0.444801278376045,0.196407677511303,0.461519744899813,0,0,0,0,0,rest_start,-0.99853515625,-0.0986328125,0.0595703125,0.06103515625,-1.8310546875,-1.64794921875,4,82
2025/07/05 10:06:23.778,20.1,0.406220122216903,0.284444396335805,73.5002594196792,0.199335456485474,0.606449998975187,0.270758488800646,0.656915810642357,0,0,0,0,0,,-0.99755859375,-0.08544921875,0.06591796875,1.953125,-1.77001953125,-1.28173828125,4,82
2025/07/05 10:06:23.878,20.2,0.406387751571169,0.289503363322237,73.5454827096735,0.234709753168498,0.662560312670397,0.29220624254761,0.724818087773687,0,0,0,0,0,,-0.9912109375,-0.10107421875,0.05029296875,0.732421875,-1.708984375,-3.90625,4,82
2025/07/05 10:06:23.978,20.3,0.406854035028985,0.29510249029753,73.5893155658525,0.215630962247186,0.640664750949869,0.284152549651191,0.687666214610829,0,0,0,0,0,,-1.0029296875,-0.10693359375,0.05712890625,-0.244140625,-2.5634765625,-3.11279296875,4,82
2025/07/05 10:06:24.079,20.4,0.407154768001503,0.300813040458241,73.6320885011723,0.204761392911056,0.631310211410204,0.284152549651191,0.675343349653645,0,0,0,0,0,,-0.99462890625,-0.1181640625,0.05810546875,0.30517578125,-3.0517578125,-1.52587890625,4,82
2025/07/05 10:06:24.179,20.5,0.407671321193201,0.307241881955478,73.6857787613054,0.174991346004126,0.590974901739643,0.270758488800646,0.629401220066204,0,0,0,0,0,,-1.0029296875,-0.123046875,0.0634765625,-0.79345703125,-3.35693359375,-0.48828125,4,82
2025/07/05 10:06:24.279,20.6,0.408141457725926,0.313232570413748,73.7288822095812,0.132003440793681,0.526497497073468,0.244077529408711,0.559766429230427,0,0,0,0,0,,-1.0048828125,-0.11767578125,0.0615234375,-1.40380859375,-1.77001953125,-1.220703125,4,82
2025/07/05 10:06:24.379,20.7,0.409596934291047,0.319005595521239,73.7603493224024,0.0893819792960486,0.471885304473586,0.21224718365806,0.491088133409447,0,0,0,0,0,,-0.99072265625,-0.12158203125,0.06103515625,-1.03759765625,-3.11279296875,-0.79345703125,4,82
2025/07/05 10:06:24.479,20.8,0.410051461352517,0.323594070786837,73.7938266898029,0.180390914482977,0.594066091900231,0.268083976875152,0.638555937165335,0,0,0,0,0,,-0.9931640625,-0.11279296875,0.0771484375,0.1220703125,-3.2958984375,-0.9765625,4,82
2025/07/05 10:06:24.579,20.9,0.409852279600539,0.327255443309262,73.8280230678448,0.248382170562747,0.694006956739626,0.319145962489943,0.765379932082415,0,0,0,0,0,,-0.99169921875,-0.125,0.0673828125,5.615234375,-1.708984375,1.708984375,4,82
2025/07/05 10:06:24.679,21.0,0.409654242811964,0.331306705025649,73.8643288903434,0.240174234505296,0.700320088797397,0.32725626422843,0.768513745989762,0,0,0,0,0,,-0.99267578125,-0.1240234375,0.068359375,-0.54931640625,-2.86865234375,0,4,82
2025/07/05 10:06:24.779,21.1,0.409754860126938,0.335647239127335,73.9070914284014,0.229251237423864,0.681404555800741,0.32455136834126,0.731036993955371,0,0,0,0,0,,-0.99755859375,-0.12109375,0.07421875,-0.732421875,-3.173828125,-1.52587890625,4,82
2025/07/05 10:06:24.879,21.2,0.410710764382354,0.340421515485933,73.9495130562415,0.202047688678638,0.643786824061296,0.313746394011092,0.693839054809052,0,0,0,0,0,,-0.99609375,-0.12646484375,0.07763671875,0.3662109375,-2.25830078125,-0.9765625,4,82
2025/07/05 10:06:24.979,21.3,0.412104258182165,0.345027369309881,73.9919346840816,0.166902910820723,0.594066091900231,0.29220624254761,0.64161123816202,0,0,0,0,0,,-0.994140625,-0.126953125,0.072265625,2.01416015625,-0.6103515625,-1.0986328125,4,82
2025/07/05 10:06:25.079,21.4,0.413670589561254,0.349155057096769,74.0460608585032,0.11597778628774,0.52954906868207,0.260069014017303,0.562773948073282,0,0,0,0,0,,-0.994140625,-0.1376953125,0.072265625,0.244140625,-2.01416015625,-0.42724609375,4,82
2025/07/05 10:06:25.179,21.5,0.415632491761887,0.353262944313448,74.1115506692884,0.188501216221465,0.631310211410204,0.305657958827688,0.672267372979891,0,0,0,0,0,,-0.9892578125,-0.1318359375,0.07421875,-0.06103515625,-2.25830078125,-0.3662109375,4,82
2025/07/05 10:06:25.279,21.6,0.417185568935849,0.356740260271898,74.1775191693596,0.270336102323057,0.754306004644262,0.36527926058794,0.818923750055109,0,0,0,0,0,,-0.99462890625,-0.13427734375,0.0732421875,0.3662109375,-2.5634765625,0.06103515625,4,82
2025/07/05 10:06:25.379,21.7,0.418746298368392,0.360449686081481,74.2454219054076,0.270336102323057,0.760695781776508,0.37073479841832,0.822091314257022,0,0,0,0,0,,-0.9912109375,-0.1298828125,0.07275390625,0.3662109375,-1.8310546875,-0.42724609375,4,82
2025/07/05 10:06:25.479,21.8,0.420564897943652,0.364943763849542,74.3242095885332,0.264838575737892,0.754306004644262,0.36800628543083,0.796806810688921,0,0,0,0,0,,-0.99462890625,-0.140625,0.07666015625,0,-2.38037109375,-0.30517578125,4,82
2025/07/05 10:06:25.579,21.9,0.422488716386541,0.36935490015375,74.4124266720458,0.245644694488075,0.72882824289091,0.357107098716138,0.768513745989762,0,0,0,0,0,,-0.9990234375,-0.138671875,0.0751953125,-0.18310546875,-2.44140625,-0.1220703125,4,82
2025/07/05 10:06:25.679,22.0,0.424844312838738,0.372733484361409,74.5009846657762,0.21019322389122,0.675115246889105,0.332670449841913,0.709304578817302,0,0,0,0,0,,-1,-0.13427734375,0.07275390625,-0.48828125,-2.62451171875,1.3427734375,4,82
2025/07/05 10:06:25.779,22.1,0.427809856447179,0.37501220034281,74.5892017492887,0.156138644175618,0.594066091900231,0.294893692182583,0.620263234107252,0,0,0,0,0,,-0.99462890625,-0.134765625,0.080078125,-0.67138671875,-2.25830078125,0,4,82
2025/07/05 10:06:25.879,22.2,0.429857022120171,0.376781732464053,74.6770779225834,0.185796320334294,0.628195916743657,0.313746394011092,0.653851146172832,0,0,0,0,0,,-0.990234375,-0.13916015625,0.0751953125,0.42724609375,-2.86865234375,-0.79345703125,4,82
2025/07/05 10:06:25.979,22.3,0.432844586758051,0.378881643401373,74.764954095878,0.289625186305681,0.776706041775335,0.381663764355367,0.825260886423698,0,0,0,0,0,,-0.998046875,-0.14306640625,0.0810546875,-0.48828125,-3.23486328125,0.30517578125,4,82
2025/07/05 10:06:26.079,22.4,0.43570714436987,0.381647050917228,74.8528302691726,0.308988972321361,0.812110115788294,0.400847125501949,0.857067608984828,0,0,0,0,0,,-0.994140625,-0.1357421875,0.08251953125,-0.18310546875,-2.25830078125,1.03759765625,4,82
2025/07/05 10:06:26.180,22.5,0.437997421341324,0.384583447532739,74.9407064424673,0.303448805632106,0.812110115788294,0.398102135081374,0.834781676210275,0,0,0,0,0,,-0.99560546875,-0.14111328125,0.0849609375,0.3662109375,-2.3193359375,-0.42724609375,4,82
2025/07/05 10:06:26.280,22.6,0.440008803019313,0.386788506280548,75.0395967115218,0.292386854382238,0.792767732186917,0.389876194220509,0.809433079836746,0,0,0,0,0,,-0.99365234375,-0.14208984375,0.08642578125,-0.06103515625,-2.197265625,-0.48828125,4,82
2025/07/05 10:06:26.380,22.7,0.441382287181498,0.388242293470026,75.1506124025787,0.264838575737892,0.754306004644262,0.36800628543083,0.755990258101331,0,0,0,0,0,,-0.99267578125,-0.13525390625,0.08544921875,0.30517578125,-1.89208984375,0.48828125,4,82
2025/07/05 10:06:26.480,22.8,0.442829962952264,0.389197457894957,75.2741830214447,0.215630962247186,0.687701785758439,0.332670449841913,0.669193287469289,0,0,0,0,0,,-0.99169921875,-0.1435546875,0.08544921875,0.9765625,-2.50244140625,-0.244140625,4,82
2025/07/05 10:06:26.580,22.9,0.444092426641504,0.389573080348249,75.3974127300929,0.177690401360083,0.62197314067536,0.302964718835021,0.611141918244435,0,0,0,0,0,,-0.99609375,-0.1455078125,0.08203125,0.18310546875,-2.197265625,-0.18310546875,4,82
2025/07/05 10:06:26.680,23.0,0.445684883979746,0.390827301394552,75.5324269505256,0.278593742392373,0.763893735147754,0.37073479841832,0.771649525286959,0,0,0,0,0,,-0.99365234375,-0.1376953125,0.0830078125,0.3662109375,-1.46484375,0.30517578125,4,82
2025/07/05 10:06:26.780,23.1,0.448071049776199,0.392521377140192,75.6667221603169,0.350737057268514,0.867323407425496,0.422861470037694,0.889077961117949,0,0,0,0,0,,-0.99365234375,-0.140625,0.08447265625,0.18310546875,-2.0751953125,0.42724609375,4,82
2025/07/05 10:06:26.880,23.2,0.45020405147629,0.393674433859707,75.8002983594669,0.350737057268514,0.867323407425496,0.42562009075622,0.869847168467119,0,0,0,0,0,,-0.99365234375,-0.140625,0.08447265625,0.18310546875,-2.0751953125,0.42724609375,4,82
2025/07/05 10:06:26.980,23.3,0.452398073317607,0.394422925178265,75.9461037689593,0.342359507262566,0.854277085801832,0.420104370477624,0.847504329195667,0,0,0,0,0,,-0.990234375,-0.14306640625,0.08251953125,0.42724609375,-2.3193359375,-0.3662109375,4,82
2025/07/05 10:06:27.080,23.4,0.454931770690991,0.394815543449294,76.1068407081385,0.31731074943042,0.818574240703497,0.403593623744858,0.796806810688921,0,0,0,0,0,,-0.99560546875,-0.1455078125,0.087890625,0.06103515625,-2.01416015625,0.1220703125,4,82
2025/07/05 10:06:27.180,23.5,0.457465395850511,0.395278330428223,76.2702799666622,0.273087133988327,0.754306004644262,0.373464801175464,0.731036993955371,0,0,0,0,0,,-0.99609375,-0.14306640625,0.0859375,0.42724609375,-1.89208984375,0.67138671875,4,82
2025/07/05 10:06:27.280,23.6,0.459855741936946,0.395922332606343,76.4337192251859,0.218352050709172,0.665696091967594,0.32996262420005,0.647727446784602,0,0,0,0,0,,-0.99951171875,-0.13720703125,0.083984375,0.18310546875,-1.708984375,-0.30517578125,4,82
2025/07/05 10:06:27.380,23.7,0.461996391099074,0.396905032816562,76.6066853747075,0.188501216221465,0.62197314067536,0.308352650310586,0.605070272172899,0,0,0,0,0,,-0.99365234375,-0.1494140625,0.0869140625,0.6103515625,-2.0751953125,-0.06103515625,4,82
2025/07/05 10:06:27.480,23.8,0.464266450283864,0.398066690334173,76.7701246332312,0.308988972321361,0.789551263806137,0.389876194220509,0.790505612721378,0,0,0,0,0,,-0.9931640625,-0.14306640625,0.083984375,0.244140625,-2.01416015625,0,4,82
2025/07/05 10:06:27.580,23.9,0.466950384664712,0.398731487588148,76.9328448811135,0.367534385246108,0.870590313732828,0.433905096670911,0.8826594750947,0,0,0,0,0,,-0.990234375,-0.150390625,0.08154296875,1.15966796875,-1.89208984375,-0.18310546875,4,82
2025/07/05 10:06:27.680,24.0,0.469942346478437,0.399452571318447,77.0938657153674,0.364730908903812,0.860795991452109,0.431141902389204,0.866649215095873,0,0,0,0,0,,-0.99072265625,-0.146484375,0.08544921875,0,-1.8310546875,-0.54931640625,4,82
2025/07/05 10:06:27.780,24.1,0.472527147230454,0.399778293111129,77.2572192643342,0.353532696103154,0.847766668312353,0.42562009075622,0.841138956056529,0,0,0,0,0,,-0.990234375,-0.15380859375,0.08740234375,0.91552734375,-2.38037109375,-0.244140625,4,82
2025/07/05 10:06:27.880,24.2,0.474408493585,0.399594524797852,77.4238859310009,0.325646400028162,0.802429570798214,0.406341631467503,0.796806810688921,0,0,0,0,0,,-0.99072265625,-0.150390625,0.0859375,0.18310546875,-1.77001953125,0.18310546875,4,82
2025/07/05 10:06:27.980,24.3,0.476454217130062,0.40048197162832,77.5905525976675,0.278593742392373,0.735185522737163,0.373464801175464,0.724818087773687,0,0,0,0,0,,-0.99072265625,-0.146484375,0.08447265625,0.42724609375,-2.62451171875,-0.54931640625,4,82
2025/07/05 10:06:28.080,24.4,0.478512960970451,0.401165291083348,77.7458556279706,0.218352050709172,0.646910847858955,0.32996262420005,0.632450930392833,0,0,0,0,0,,-1.00048828125,-0.146484375,0.08837890625,-0.42724609375,-1.708984375,-0.732421875,4,82
2025/07/05 10:06:28.180,24.5,0.479857459290844,0.401764762672222,77.88979502191,0.17229374684212,0.581712781291464,0.29220624254761,0.568794418307592,0,0,0,0,0,,-0.99267578125,-0.16162109375,0.08837890625,0.6103515625,-1.953125,0.30517578125,4,82
2025/07/05 10:06:28.280,24.6,0.480649397866202,0.402112136384667,78.0354423215492,0.286865042749255,0.738367196357406,0.36800628543083,0.740379880371415,0,0,0,0,0,,-0.984375,-0.1533203125,0.08447265625,-0.06103515625,-2.3193359375,-0.8544921875,4,82
2025/07/05 10:06:28.381,24.7,0.481706948007791,0.402097318142315,78.1791553852117,0.359128667504844,0.838016909112241,0.422861470037694,0.866649215095873,0,0,0,0,0,,-0.99267578125,-0.16015625,0.0859375,0.3662109375,-2.01416015625,-0.91552734375,4,82
2025/07/05 10:06:28.481,24.8,0.482520148835901,0.401364369309543,78.3210963418389,0.35632989893163,0.831527615630939,0.422861470037694,0.853877816260697,0,0,0,0,0,,-0.9873046875,-0.15966796875,0.083984375,-0.244140625,-2.01416015625,0.18310546875,4,82
2025/07/05 10:06:28.581,24.9,0.483044209657527,0.400594465152028,78.4703070956503,0.345150464591797,0.812110115788294,0.417348790399339,0.828432469102507,0,0,0,0,0,,-0.98681640625,-0.1591796875,0.08544921875,0.30517578125,-2.5634765625,-0.6103515625,4,82
2025/07/05 10:06:28.681,25.0,0.483255757399985,0.400537819796539,78.63081728449,0.31731074943042,0.770295784582578,0.398102135081374,0.787357989120106,0,0,0,0,0,,-0.99267578125,-0.16064453125,0.0908203125,-0.244140625,-2.13623046875,-0.30517578125,4,82
2025/07/05 10:06:28.781,25.1,0.483219524572981,0.400528555520895,78.7913274733296,0.273087133988327,0.706641202060905,0.36800628543083,0.721711532889352,0,0,0,0,0,,-0.99560546875,-0.16357421875,0.08935546875,0.8544921875,-1.708984375,0.8544921875,4,82
2025/07/05 10:06:28.881,25.2,0.483225573169086,0.400338085080805,78.9518376621692,0.223798674260286,0.63442644705205,0.32996262420005,0.647727446784602,0,0,0,0,0,,-0.99365234375,-0.15478515625,0.0869140625,-0.06103515625,-1.5869140625,-0.30517578125,4,82
2025/07/05 10:06:28.981,25.3,0.482174750673753,0.399305386183307,79.1123478510089,0.164209670828055,0.544834925667042,0.28683567283095,0.559766429230427,0,0,0,0,0,,-0.990234375,-0.16357421875,0.08984375,0.6103515625,-1.52587890625,0.3662109375,4,82
2025/07/05 10:06:29.081,25.4,0.480714838079945,0.397357796933715,79.2615586048203,0.245644694488075,0.662560312670397,0.340802736685604,0.687666214610829,0,0,0,0,0,,-0.982421875,-0.1591796875,0.0849609375,0.67138671875,-1.64794921875,-0.244140625,4,82
2025/07/05 10:06:29.181,25.5,0.479565669038824,0.395344204171283,79.3940701610606,0.336782261926346,0.786336863229023,0.406341631467503,0.841138956056529,0,0,0,0,0,,-0.990234375,-0.16748046875,0.0849609375,0.244140625,-2.50244140625,-0.79345703125,4,82
2025/07/05 10:06:29.281,25.6,0.478170501034306,0.394408335587903,79.5042681865129,0.336782261926346,0.779914254862945,0.411842181995293,0.841138956056529,0,0,0,0,0,,-0.98876953125,-0.16845703125,0.0888671875,0.48828125,-1.15966796875,1.15966796875,4,82
2025/07/05 10:06:29.381,25.7,0.47666243222198,0.394056120974201,79.6052092053843,0.328428041226744,0.763893735147754,0.406341631467503,0.825260886423698,0,0,0,0,0,,-0.98095703125,-0.162109375,0.08447265625,0.3662109375,-2.5634765625,-0.244140625,4,82
2025/07/05 10:06:29.481,25.8,0.474984289649762,0.393799563509592,79.6935952964466,0.303448805632106,0.72882824289091,0.392616671091248,0.787357989120106,0,0,0,0,0,,-0.99462890625,-0.16552734375,0.09033203125,-0.79345703125,-2.50244140625,-0.6103515625,4,82
2025/07/05 10:06:29.581,25.9,0.473274210531658,0.393633621925374,79.7819813875089,0.264838575737892,0.675115246889105,0.36527926058794,0.727926573994725,0,0,0,0,0,,-0.99072265625,-0.16162109375,0.08935546875,0.9765625,-1.64794921875,0.91552734375,4,82
2025/07/05 10:06:29.681,26.0,0.471091932491026,0.392424519614143,79.8560554615829,0.215630962247186,0.600254211409771,0.32725626422843,0.650788358986407,0,0,0,0,0,,-0.986328125,-0.1611328125,0.083984375,0.30517578125,-1.40380859375,-1.220703125,4,82
2025/07/05 10:06:29.781,26.1,0.468672123176167,0.390438298763843,79.930129535657,0.148080624823984,0.502151740267195,0.281470865529254,0.55075471169541,0,0,0,0,0,,-0.9951171875,-0.1748046875,0.09375,0.79345703125,-2.0751953125,-0.18310546875,4,82
2025/07/05 10:06:29.881,26.2,0.466000965777154,0.3878775784913,80.0008904920312,0.202047688678638,0.575547552488757,0.313746394011092,0.638555937165335,0,0,0,0,0,,-0.98486328125,-0.16552734375,0.08984375,1.03759765625,-1.40380859375,0.54931640625,4,82
2025/07/05 10:06:29.981,26.3,0.46311119778464,0.386230115236142,80.0594222380629,0.314535284510142,0.72882824289091,0.395358650828458,0.828432469102507,0,0,0,0,0,,-0.986328125,-0.16796875,0.08349609375,0.9765625,-2.0751953125,-0.18310546875,4,82
2025/07/05 10:06:30.081,26.4,0.460288367912618,0.386336481776147,80.0968086811097,0.32008775584754,0.738367196357406,0.403593623744858,0.844320629676771,0,0,0,0,0,,-0.98828125,-0.166015625,0.08349609375,0.48828125,-1.77001953125,-0.06103515625,4,82
2025/07/05 10:06:30.181,26.5,0.457894405011013,0.386556333054074,80.1219659138141,0.308988972321361,0.725652631526306,0.398102135081374,0.818923750055109,0,0,0,0,0,,-0.9873046875,-0.17138671875,0.0869140625,0.67138671875,-2.3193359375,-0.3662109375,4,82
2025/07/05 10:06:30.281,26.6,0.455463596435516,0.386905845159966,80.1471231465185,0.292386854382238,0.690853377369556,0.387137218569713,0.796806810688921,0,0,0,0,0,,-0.9892578125,-0.1728515625,0.08935546875,0.244140625,-2.0751953125,-0.06103515625,4,82
2025/07/05 10:06:30.381,26.7,0.452834001947637,0.387134482410691,80.1722803792229,0.256603602821492,0.643786824061296,0.362553722267252,0.737263644729569,0,0,0,0,0,,-0.98779296875,-0.16845703125,0.08984375,0.42724609375,-1.77001953125,0.54931640625,4,82
2025/07/05 10:06:30.482,26.8,0.450027295416818,0.386110200631637,80.1941244942274,0.212911353844268,0.578629216639001,0.32996262420005,0.663050780645782,0,0,0,0,0,,-0.99365234375,-0.16162109375,0.08837890625,0.48828125,-1.28173828125,-0.48828125,4,82
2025/07/05 10:06:30.582,26.9,0.446526973544226,0.384676125189355,80.2033899928797,0.150765188606861,0.486995620976623,0.284152549651191,0.574822146494516,0,0,0,0,0,,-0.99072265625,-0.17431640625,0.08984375,0.54931640625,-1.89208984375,0.3662109375,4,82
2025/07/05 10:06:30.682,27.0,0.442188973781263,0.382795874076788,80.1891592509305,0.161517880762776,0.502151740267195,0.28683567283095,0.592949054295989,0,0,0,0,0,,-0.986328125,-0.16748046875,0.08642578125,0.30517578125,-1.708984375,-0.1220703125,4,82
2025/07/05 10:06:30.782,27.1,0.438335019998876,0.382420923434875,80.1573846493321,0.286865042749255,0.675115246889105,0.373464801175464,0.790505612721378,0,0,0,0,0,,-0.9873046875,-0.17626953125,0.08203125,0.9765625,-2.01416015625,0.1220703125,4,82
2025/07/05 10:06:30.882,27.2,0.435146187750277,0.383138124059869,80.1134365389782,0.31731074943042,0.712970316735744,0.395358650828458,0.837959305758279,0,0,0,0,0,,-0.98681640625,-0.17041015625,0.08740234375,0.18310546875,-1.5869140625,0.06103515625,4,82
2025/07/05 10:06:30.982,27.3,0.432163447988187,0.383685920696872,80.0606280375685,0.308988972321361,0.700320088797397,0.392616671091248,0.818923750055109,0,0,0,0,0,,-0.9892578125,-0.17822265625,0.08837890625,0.54931640625,-2.3193359375,-0.06103515625,4,82
2025/07/05 10:06:31.082,27.4,0.42928495768451,0.384827733903278,79.9971867498266,0.30068102259686,0.687701785758439,0.389876194220509,0.799960390058991,0,0,0,0,0,,-0.9892578125,-0.17822265625,0.08837890625,0.54931640625,-2.3193359375,-0.06103515625,4,82
2025/07/05 10:06:31.182,27.5,0.426360738585318,0.385607601876556,79.920125817927,0.270336102323057,0.643786824061296,0.36800628543083,0.749740257380661,0,0,0,0,0,,-0.98828125,-0.17333984375,0.0888671875,0.30517578125,-1.77001953125,0.3662109375,4,82
2025/07/05 10:06:31.282,27.6,0.42350356355007,0.385422591821811,79.8373445328032,0.229251237423864,0.587885621489686,0.33809050449244,0.684582649958366,0,0,0,0,0,,-0.98486328125,-0.17431640625,0.0849609375,0.79345703125,-2.01416015625,0.3662109375,4,82
2025/07/05 10:06:31.382,27.7,0.419749224275891,0.384374783816702,79.7543572574846,0.174991346004126,0.511267512938934,0.302964718835021,0.605070272172899,0,0,0,0,0,,-0.99609375,-0.16943359375,0.08837890625,0.1220703125,-2.13623046875,-0.3662109375,4,82
2025/07/05 10:06:31.482,27.8,0.416037674534328,0.383032841352961,79.6625980523414,0.145397501644225,0.468868713175151,0.281470865529254,0.559766429230427,0,0,0,0,0,,-0.98876953125,-0.1806640625,0.08740234375,0.9765625,-2.3193359375,0.1220703125,4,82
2025/07/05 10:06:31.582,27.9,0.412634536851334,0.382326492851391,79.5541396496272,0.262092077494983,0.628195916743657,0.359829668849017,0.737263644729569,0,0,0,0,0,,-0.9892578125,-0.17236328125,0.08740234375,0.48828125,-2.3193359375,-0.244140625,4,82
2025/07/05 10:06:31.682,28.0,0.409833415517265,0.382644055355317,79.4343818118847,0.325646400028162,0.716137880937657,0.409091150330023,0.850690057194802,0,0,0,0,0,,-0.98486328125,-0.1767578125,0.08349609375,0.732421875,-1.708984375,-0.1220703125,4,82
2025/07/05 10:06:31.782,28.1,0.407433153786257,0.383238175931211,79.3036654703433,0.325646400028162,0.712970316735744,0.411842181995293,0.841138956056529,0,0,0,0,0,,-0.98486328125,-0.17529296875,0.0869140625,0.30517578125,-1.64794921875,-0.06103515625,4,82
2025/07/05 10:06:31.882,28.2,0.404972779635372,0.384373030702036,79.1525729532533,0.32008775584754,0.706641202060905,0.409091150330023,0.825260886423698,0,0,0,0,0,,-0.98291015625,-0.18115234375,0.087890625,0.67138671875,-2.38037109375,-0.732421875,4,82
2025/07/05 10:06:31.982,28.3,0.402732695903838,0.385258646109542,78.9905219323643,0.297914770838615,0.675115246889105,0.395358650828458,0.787357989120106,0,0,0,0,0,,-0.990234375,-0.18115234375,0.08984375,-0.1220703125,-2.13623046875,-0.244140625,4,82
2025/07/05 10:06:32.082,28.4,0.400307668225608,0.385673854257033,78.8382295144543,0.259347087074408,0.62197314067536,0.36800628543083,0.731036993955371,0,0,0,0,0,,-0.984375,-0.18017578125,0.08642578125,0.8544921875,-1.953125,0.3662109375,4,82
2025/07/05 10:06:32.182,28.5,0.39737837996043,0.385321108180796,78.7026362941153,0.212911353844268,0.560167657478464,0.332670449841913,0.653851146172832,0,0,0,0,0,,-0.9853515625,-0.17822265625,0.08740234375,0.1220703125,-2.197265625,-0.42724609375,4,82
2025/07/05 10:06:32.282,28.6,0.394588594373111,0.384139741392985,78.5783425088046,0.158827539064565,0.483969902321206,0.294893692182583,0.577838737792951,0,0,0,0,0,,-0.9892578125,-0.1884765625,0.09033203125,1.0986328125,-2.50244140625,0.244140625,4,82
2025/07/05 10:06:32.382,28.7,0.391926580436052,0.383011234316488,78.4515212182902,0.240174234505296,0.597159194334472,0.346231618788434,0.693839054809052,0,0,0,0,0,,-0.986328125,-0.17919921875,0.08935546875,0.54931640625,-1.708984375,0.42724609375,4,82
2025/07/05 10:06:32.482,28.8,0.389782278641436,0.382632226408534,78.3246999277758,0.336782261926346,0.725652631526306,0.409091150330023,0.850690057194802,0,0,0,0,0,,-0.982421875,-0.1865234375,0.08544921875,0.9765625,-1.220703125,-0.244140625,4,82
2025/07/05 10:06:32.582,28.9,0.388195952256977,0.38352401753841,78.1872854169224,0.339570106952846,0.72882824289091,0.417348790399339,0.857067608984828,0,0,0,0,0,,-0.98876953125,-0.18212890625,0.0869140625,0.79345703125,-1.77001953125,0.06103515625,4,82
2025/07/05 10:06:32.683,29.0,0.386861338640978,0.385054292763744,78.0418051909337,0.336782261926346,0.719307453104332,0.41459472812894,0.847504329195667,0,0,0,0,0,,-0.98779296875,-0.1875,0.087890625,0.79345703125,-2.0751953125,-0.30517578125,4,82
2025/07/05 10:06:32.783,29.1,0.385540902111628,0.386698597481299,77.885731744606,0.32008775584754,0.690853377369556,0.409091150330023,0.828432469102507,0,0,0,0,0,,-0.9892578125,-0.18798828125,0.08984375,0.54931640625,-1.89208984375,0.06103515625,4,82
2025/07/05 10:06:32.883,29.2,0.384041801975405,0.387919902786508,77.7223781956392,0.286865042749255,0.646910847858955,0.387137218569713,0.777926989922578,0,0,0,0,0,,-0.982421875,-0.18896484375,0.0869140625,1.3427734375,-1.708984375,0,4,82
2025/07/05 10:06:32.983,29.3,0.382158731147082,0.387860433593871,77.5590246466725,0.242908716348401,0.584798248791719,0.357107098716138,0.709304578817302,0,0,0,0,0,,-0.9814453125,-0.18310546875,0.091796875,0.54931640625,-2.197265625,0.18310546875,4,82
2025/07/05 10:06:33.083,29.4,0.380069129271352,0.386499495224369,77.3923579800058,0.191207576193085,0.514309800787887,0.316445449367048,0.623307374186364,0,0,0,0,0,,-0.98486328125,-0.19580078125,0.08740234375,1.220703125,-2.8076171875,0.30517578125,4,82
2025/07/05 10:06:33.183,29.5,0.377940015715219,0.385244175794345,77.2256913133391,0.212911353844268,0.538714973953793,0.32455136834126,0.650788358986407,0,0,0,0,0,,-0.9853515625,-0.18310546875,0.08935546875,0.244140625,-2.44140625,0.18310546875,4,82
2025/07/05 10:06:33.283,29.6,0.376442367011056,0.385385337441675,77.0590246466725,0.333995970449675,0.706641202060905,0.406341631467503,0.841138956056529,0,0,0,0,0,,-0.990234375,-0.18603515625,0.08984375,0.42724609375,-1.5869140625,0.1220703125,4,82
2025/07/05 10:06:33.383,29.7,0.375353494660968,0.386750895586166,76.8923579800058,0.36192900357664,0.741550895876302,0.422861470037694,0.8826594750947,0,0,0,0,0,,-0.98779296875,-0.18701171875,0.091796875,0.67138671875,-2.01416015625,0.42724609375,4,82
2025/07/05 10:06:33.483,29.8,0.374452677340005,0.388697252377706,76.729004431039,0.36192900357664,0.738367196357406,0.420104370477624,0.863453305798509,0,0,0,0,0,,-0.98291015625,-0.18603515625,0.0869140625,0.79345703125,-2.197265625,-0.1220703125,4,82
2025/07/05 10:06:33.583,29.9,0.373979417052186,0.391136261785264,76.5782294984245,0.359128667504844,0.725652631526306,0.41459472812894,0.847504329195667,0,0,0,0,0,,-0.986328125,-0.1904296875,0.09326171875,0.244140625,-2.25830078125,-0.244140625,4,82
2025/07/05 10:06:33.683,30.0,0.373453096159516,0.393170429578523,76.4211935044804,0.333995970449675,0.684552179402012,0.395358650828458,0.803115959697018,0,0,0,0,0,,-0.98291015625,-0.19189453125,0.0908203125,1.03759765625,-1.8310546875,0.30517578125,4,82
2025/07/05 10:06:33.783,30.1,0.372188410502734,0.393283702015409,76.2486309505546,0.297914770838615,0.63442644705205,0.36800628543083,0.740379880371415,0,0,0,0,0,,-0.98291015625,-0.18896484375,0.0908203125,0.244140625,-2.0751953125,0.06103515625,4,82
2025/07/05 10:06:33.883,30.2,0.370527596470044,0.39250737701781,76.0849287876846,0.251121146213543,0.56938991633428,0.32996262420005,0.663050780645782,0,0,0,0,0,,-0.98388671875,-0.1982421875,0.08935546875,1.15966796875,-2.8076171875,0.18310546875,4,82
2025/07/05 10:06:33.983,30.3,0.368866782437354,0.39173105202021,75.9300870158702,0.231979750411354,0.547897712853467,0.316445449367048,0.635502502001435,0,0,0,0,0,,-0.98193359375,-0.1884765625,0.0908203125,-0.3662109375,-2.13623046875,0.30517578125,4,82
2025/07/05 10:06:34.083,30.4,0.367755368967087,0.391846533724516,75.785878030388,0.342359507262566,0.700320088797397,0.389876194220509,0.815758191275428,0,0,0,0,0,,-0.9921875,-0.1865234375,0.09326171875,0.6103515625,-1.708984375,0.1220703125,4,82
2025/07/05 10:06:34.183,30.5,0.36723711708822,0.392786901750187,75.6552886890636,0.387202856508151,0.760695781776508,0.417348790399339,0.895504697125503,0,0,0,0,0,,-0.986328125,-0.193359375,0.09521484375,0.48828125,-2.0751953125,0,4,82
2025/07/05 10:06:34.283,30.6,0.366634627131191,0.394401322535213,75.5278921957597,0.38438833353741,0.751114175665463,0.41459472812894,0.8826594750947,0,0,0,0,0,,-0.97900390625,-0.1943359375,0.08935546875,1.15966796875,-2.13623046875,-0.244140625,4,82
2025/07/05 10:06:34.383,30.7,0.366507951127062,0.396531915372406,75.4007016926506,0.3787640360653,0.744736623875436,0.411842181995293,0.866649215095873,0,0,0,0,0,,-0.98486328125,-0.19482421875,0.091796875,0.1220703125,-2.13623046875,-0.30517578125,4,82
2025/07/05 10:06:34.483,30.8,0.366263169399784,0.398520784945298,75.2735111895415,0.353532696103154,0.712970316735744,0.398102135081374,0.825260886423698,0,0,0,0,0,,-0.9833984375,-0.19775390625,0.091796875,1.03759765625,-2.0751953125,0,4,82
2025/07/05 10:06:34.583,30.9,0.365745873224789,0.39976197424685,75.1463206864324,0.32008775584754,0.659426498763049,0.37073479841832,0.774787272440762,0,0,0,0,0,,-0.9833984375,-0.19384765625,0.0927734375,0.06103515625,-2.38037109375,-0.244140625,4,82
2025/07/05 10:06:34.683,31.0,0.364672513200993,0.40028130237321,75.0191301833233,0.273087133988327,0.600254211409771,0.33809050449244,0.706207644729136,0,0,0,0,0,,-0.98046875,-0.2041015625,0.0908203125,1.03759765625,-2.5634765625,-0.1220703125,4,82
2025/07/05 10:06:34.784,31.1,0.363619643860168,0.400916574094694,74.9028981840131,0.229251237423864,0.538714973953793,0.308352650310586,0.638555937165335,0,0,0,0,0,,-0.9814453125,-0.19873046875,0.09521484375,-0.1220703125,-2.13623046875,0,4,82
2025/07/05 10:06:34.884,31.2,0.362566774519343,0.401551845816178,74.8070423602515,0.308988972321361,0.656294647783425,0.359829668849017,0.768513745989762,0,0,0,0,0,,-0.9853515625,-0.19384765625,0.09521484375,0.244140625,-2.197265625,-0.06103515625,4,82
2025/07/05 10:06:34.984,31.3,0.362012557925655,0.402782262175308,74.7221450402889,0.381575393983334,0.757499872479144,0.411842181995293,0.905160316332475,0,0,0,0,0,,-0.98779296875,-0.20166015625,0.09521484375,0.48828125,-2.25830078125,-0.18310546875,4,82
2025/07/05 10:06:35.084,31.4,0.361776818716585,0.405011020256302,74.6387885523756,0.3787640360653,0.760695781776508,0.409091150330023,0.895504697125503,0,0,0,0,0,,-0.97998046875,-0.2001953125,0.09033203125,1.03759765625,-1.89208984375,-0.42724609375,4,82
2025/07/05 10:06:35.184,31.5,0.361768320277464,0.407461047765728,74.5554320644623,0.37595425800569,0.754306004644262,0.406341631467503,0.879453319213445,0,0,0,0,0,,-0.97998046875,-0.2001953125,0.09033203125,1.03759765625,-1.89208984375,-0.42724609375,4,82
2025/07/05 10:06:35.284,31.6,0.361722181807537,0.409881268305219,74.472075576549,0.359128667504844,0.725652631526306,0.395358650828458,0.853877816260697,0,0,0,0,0,,-0.984375,-0.2080078125,0.09521484375,0.30517578125,-2.13623046875,-0.06103515625,4,82
2025/07/05 10:06:35.384,31.7,0.361549073593484,0.411760927650279,74.3887190886357,0.325646400028162,0.684552179402012,0.373464801175464,0.796806810688921,0,0,0,0,0,,-0.98291015625,-0.20166015625,0.09326171875,0.6103515625,-1.89208984375,-0.06103515625,4,82
2025/07/05 10:06:35.484,31.8,0.360798077043321,0.412863224082705,74.3053626007224,0.286865042749255,0.631310211410204,0.343516440918022,0.740379880371415,0,0,0,0,0,,-0.97705078125,-0.205078125,0.0927734375,0.48828125,-1.89208984375,0.1220703125,4,82
2025/07/05 10:06:35.584,31.9,0.359839035919522,0.413260840953853,74.2325993331481,0.234709753168498,0.560167657478464,0.308352650310586,0.659982354697691,0,0,0,0,0,,-0.97705078125,-0.20556640625,0.09033203125,1.0986328125,-1.3427734375,-0.8544921875,4,82
2025/07/05 10:06:35.684,32.0,0.358879994795723,0.413658457825001,74.1704292859127,0.248382170562747,0.587885621489686,0.316445449367048,0.684582649958366,0,0,0,0,0,,-0.9814453125,-0.2109375,0.09521484375,0,-1.89208984375,-0.06103515625,4,82
2025/07/05 10:06:35.784,32.1,0.358690817006522,0.415023683371986,74.1188524590164,0.347942980679742,0.732005872438914,0.387137218569713,0.866649215095873,0,0,0,0,0,,-0.98095703125,-0.208984375,0.09619140625,0.54931640625,-2.25830078125,0.244140625,4,82
2025/07/05 10:06:35.884,32.2,0.358913159916862,0.417611050910551,74.077868852459,0.367534385246108,0.760695781776508,0.403593623744858,0.908383004117579,0,0,0,0,0,,-0.984375,-0.20654296875,0.09326171875,0.3662109375,-2.50244140625,0,4,82
2025/07/05 10:06:35.984,32.3,0.359378409868029,0.420681228945234,74.0368852459016,0.36192900357664,0.747924382941332,0.400847125501949,0.901939704352851,0,0,0,0,0,,-0.97607421875,-0.20654296875,0.09033203125,0.79345703125,-1.64794921875,0.244140625,4,82
2025/07/05 10:06:36.084,32.4,0.360123112916715,0.423931960786973,73.9959016393442,0.350737057268514,0.738367196357406,0.395358650828458,0.879453319213445,0,0,0,0,0,,-0.97900390625,-0.21142578125,0.095703125,0,-2.3193359375,-0.1220703125,4,82
2025/07/05 10:06:36.184,32.5,0.360757897192049,0.426932775580971,73.9549180327869,0.322866305474751,0.700320088797397,0.381663764355367,0.837959305758279,0,0,0,0,0,,-0.982421875,-0.2099609375,0.09619140625,0.18310546875,-2.197265625,-0.18310546875,4,82
2025/07/05 10:06:36.284,32.6,0.360850366126462,0.428045391279779,73.9139344262295,0.289625186305681,0.653164757274027,0.357107098716138,0.78106868020847,0,0,0,0,0,,-0.98388671875,-0.212890625,0.09619140625,0.3662109375,-1.8310546875,0.8544921875,4,82
2025/07/05 10:06:36.384,32.7,0.360810074479091,0.428480699272008,73.8729508196721,0.245644694488075,0.594066091900231,0.32725626422843,0.715504207541523,0,0,0,0,0,,-0.98681640625,-0.2021484375,0.095703125,0.244140625,-1.3427734375,0.42724609375,4,82
2025/07/05 10:06:36.484,32.8,0.36076978283172,0.428916007264237,73.8319672131147,0.215630962247186,0.547897712853467,0.302964718835021,0.669193287469289,0,0,0,0,0,,-0.98291015625,-0.2109375,0.095703125,0.42724609375,-2.197265625,0.18310546875,4,82
2025/07/05 10:06:36.584,32.9,0.361009567361897,0.429891456028058,73.7909836065573,0.297914770838615,0.678258912459809,0.362553722267252,0.818923750055109,0,0,0,0,0,,-0.978515625,-0.20458984375,0.0947265625,0.54931640625,-1.953125,0.18310546875,4,82
2025/07/05 10:06:36.684,33.0,0.361679481438688,0.43165744588515,73.7704918032787,0.347942980679742,0.751114175665463,0.403593623744858,0.927762873052262,0,0,0,0,0,,-0.974609375,-0.208984375,0.0908203125,0.67138671875,-2.13623046875,-0.3662109375,4,82
2025/07/05 10:06:36.784,33.1,0.362911301212768,0.434021498044591,73.7704918032787,0.342359507262566,0.747924382941332,0.400847125501949,0.918063549107659,0,0,0,0,0,,-0.9775390625,-0.2109375,0.095703125,0.30517578125,-2.0751953125,-0.54931640625,4,82
2025/07/05 10:06:36.885,33.2,0.364444148422567,0.43669248647757,73.7704918032787,0.336782261926346,0.738367196357406,0.398102135081374,0.908383004117579,0,0,0,0,0,,-0.982421875,-0.21630859375,0.095703125,0.54931640625,-2.44140625,-0.3662109375,4,82
2025/07/05 10:06:36.985,33.3,0.365878239513603,0.439447097093004,73.7704918032787,0.31731074943042,0.712970316735744,0.387137218569713,0.876249217901944,0,0,0,0,0,,-0.98193359375,-0.21240234375,0.09765625,-0.244140625,-2.01416015625,-0.1220703125,4,82
2025/07/05 10:06:37.085,33.4,0.366652792075072,0.440771568578812,73.7704918032787,0.286865042749255,0.671973556603213,0.36527926058794,0.822091314257022,0,0,0,0,0,,-0.98046875,-0.212890625,0.095703125,0.3662109375,-2.3193359375,0.42724609375,4,82
2025/07/05 10:06:37.185,33.5,0.36718757038795,0.441737988852495,73.7704918032787,0.248382170562747,0.615758099569987,0.340802736685604,0.765379932082415,0,0,0,0,0,,-0.986328125,-0.21044921875,0.09814453125,-0.30517578125,-2.3193359375,0.3662109375,4,82
2025/07/05 10:06:37.285,33.6,0.367870372219931,0.442735871184882,73.7697727926373,0.202047688678638,0.547897712853467,0.305657958827688,0.684582649958366,0,0,0,0,0,,-0.97998046875,-0.216796875,0.1005859375,0.732421875,-2.62451171875,0.30517578125,4,82
2025/07/05 10:06:37.385,33.7,0.368553174051912,0.443687877748375,73.7697727926373,0.251121146213543,0.625083560636006,0.33809050449244,0.771649525286959,0,0,0,0,0,,-0.982421875,-0.2099609375,0.09814453125,0.244140625,-2.01416015625,0.18310546875,4,82
2025/07/05 10:06:37.485,33.8,0.369529932497897,0.445327307101909,73.7697727926373,0.328428041226744,0.741550895876302,0.398102135081374,0.927762873052262,0,0,0,0,0,,-0.9755859375,-0.21484375,0.09423828125,0.8544921875,-1.46484375,-0.1220703125,4,82
2025/07/05 10:06:37.585,33.9,0.371147964697044,0.448089866475992,73.769053781996,0.333995970449675,0.751114175665463,0.400847125501949,0.934239557799176,0,0,0,0,0,,-0.97705078125,-0.21337890625,0.09716796875,0.42724609375,-1.52587890625,0.3662109375,4,82
2025/07/05 10:06:37.685,34.0,0.372999315350114,0.45091417309751,73.7683347713546,0.325646400028162,0.738367196357406,0.398102135081374,0.921294566942545,0,0,0,0,0,,-0.97900390625,-0.2197265625,0.095703125,0.6103515625,-2.38037109375,-0.3662109375,4,82
2025/07/05 10:06:37.785,34.1,0.374718188874267,0.453714548089854,73.7683347713546,0.314535284510142,0.719307453104332,0.389876194220509,0.898721165506282,0,0,0,0,0,,-0.9814453125,-0.21435546875,0.09912109375,0.1220703125,-2.0751953125,0.30517578125,4,82
2025/07/05 10:06:37.885,34.2,0.37626034849903,0.455980332407057,73.7676157607132,0.286865042749255,0.678258912459809,0.37073479841832,0.847504329195667,0,0,0,0,0,,-0.9775390625,-0.2177734375,0.09423828125,0.732421875,-1.953125,0.42724609375,4,82
2025/07/05 10:06:37.985,34.3,0.377245418188982,0.457322679674544,73.7654587287892,0.253861623084283,0.631310211410204,0.346231618788434,0.787357989120106,0,0,0,0,0,,-0.97705078125,-0.21142578125,0.09765625,0.18310546875,-2.0751953125,0,4,82
2025/07/05 10:06:38.085,34.4,0.377969289015544,0.457875664424558,73.7541053188232,0.21019322389122,0.566313939660525,0.313746394011092,0.715504207541523,0,0,0,0,0,,-0.978515625,-0.22509765625,0.09814453125,0.9765625,-2.8076171875,0.244140625,4,82
2025/07/05 10:06:38.185,34.5,0.37864633020778,0.458382823860197,73.7427519088573,0.196624694735426,0.554028921378325,0.302964718835021,0.696928335059008,0,0,0,0,0,,-0.97509765625,-0.212890625,0.099609375,-0.18310546875,-2.13623046875,0.79345703125,4,82
2025/07/05 10:06:38.285,34.6,0.379875694922946,0.459947424372351,73.7313984988913,0.295150048663945,0.703479646517381,0.373464801175464,0.876249217901944,0,0,0,0,0,,-0.9873046875,-0.21240234375,0.1005859375,0.42724609375,-1.708984375,0.42724609375,4,82
2025/07/05 10:06:38.385,34.7,0.381455001030299,0.462587176754077,73.7200450889254,0.328428041226744,0.747924382941332,0.398102135081374,0.950468069045211,0,0,0,0,0,,-0.98046875,-0.21484375,0.10205078125,0.06103515625,-2.0751953125,0.1220703125,4,82
2025/07/05 10:06:38.485,34.8,0.383369288432937,0.46565775849535,73.6981048671022,0.325646400028162,0.738367196357406,0.392616671091248,0.931000166739643,0,0,0,0,0,,-0.9765625,-0.21533203125,0.09716796875,0.79345703125,-2.0751953125,-0.06103515625,4,82
2025/07/05 10:06:38.585,34.9,0.385150793626465,0.468651146851317,73.676164645279,0.32008775584754,0.725652631526306,0.389876194220509,0.921294566942545,0,0,0,0,0,,-0.98193359375,-0.22216796875,0.099609375,0.18310546875,-2.0751953125,-0.18310546875,4,82
2025/07/05 10:06:38.685,35.0,0.386741528245803,0.471551402750579,73.6662492565958,0.30068102259686,0.694006956739626,0.376196295329982,0.879453319213445,0,0,0,0,0,,-0.97607421875,-0.2197265625,0.0966796875,0.91552734375,-1.89208984375,0.3662109375,4,82
2025/07/05 10:06:38.785,35.1,0.387635450705234,0.473042591755569,73.6563338679126,0.270336102323057,0.650036824781965,0.354386010254152,0.828432469102507,0,0,0,0,0,,-0.97998046875,-0.21875,0.09814453125,-0.06103515625,-2.25830078125,0.18310546875,4,82
2025/07/05 10:06:38.885,35.2,0.388101630284466,0.473689253649177,73.6343936460894,0.234709753168498,0.594066091900231,0.32725626422843,0.76224808110279,0,0,0,0,0,,-0.97509765625,-0.22509765625,0.09716796875,1.28173828125,-2.13623046875,-0.18310546875,4,82
2025/07/05 10:06:38.985,35.3,0.388567809863699,0.474335915542784,73.6124534242662,0.191207576193085,0.535657804842655,0.29758258707153,0.690751682111084,0,0,0,0,0,,-0.9765625,-0.2197265625,0.0986328125,-0.30517578125,-1.953125,0.30517578125,4,82
2025/07/05 10:06:39.086,35.4,0.388894129272326,0.474982577436391,73.602538035583,0.256603602821492,0.631310211410204,0.340802736685604,0.809433079836746,0,0,0,0,0,,-0.97607421875,-0.22265625,0.10009765625,0.6103515625,-2.25830078125,0.18310546875,4,82
2025/07/05 10:06:39.186,35.5,0.389715332478666,0.476365999128325,73.5926226468997,0.328428041226744,0.732005872438914,0.389876194220509,0.950468069045211,0,0,0,0,0,,-0.98095703125,-0.2216796875,0.1005859375,0.6103515625,-2.3193359375,0.06103515625,4,82
2025/07/05 10:06:39.286,35.6,0.39075751993075,0.478949963223144,73.5706824250766,0.331211230792342,0.735185522737163,0.392616671091248,0.947218150227188,0,0,0,0,0,,-0.97265625,-0.21875,0.095703125,0.79345703125,-1.8310546875,0.06103515625,4,82
2025/07/05 10:06:39.386,35.7,0.391722477522926,0.481569250712495,73.5487422032534,0.328428041226744,0.725652631526306,0.387137218569713,0.934239557799176,0,0,0,0,0,,-0.97265625,-0.21875,0.095703125,0.79345703125,-1.8310546875,0.06103515625,4,82
2025/07/05 10:06:39.486,35.8,0.392364168805238,0.484110144422387,73.5388268145702,0.31731074943042,0.703479646517381,0.378929282512261,0.908383004117579,0,0,0,0,0,,-0.97607421875,-0.22314453125,0.09912109375,-0.06103515625,-2.44140625,-0.18310546875,4,82
2025/07/05 10:06:39.586,35.9,0.392557484052919,0.485680395949757,73.5289114258869,0.289625186305681,0.665696091967594,0.359829668849017,0.863453305798509,0,0,0,0,0,,-0.98046875,-0.22412109375,0.10205078125,0.42724609375,-1.953125,0.18310546875,4,82
2025/07/05 10:06:39.686,36.0,0.392461733270235,0.48637810524757,73.5069712040637,0.256603602821492,0.618864654454322,0.33809050449244,0.799960390058991,0,0,0,0,0,,-0.97509765625,-0.22265625,0.099609375,0.42724609375,-1.89208984375,0.48828125,4,82
2025/07/05 10:06:39.786,36.1,0.392083667300788,0.486909168086116,73.4850309822406,0.21019322389122,0.550962377322992,0.305657958827688,0.727926573994725,0,0,0,0,0,,-0.978515625,-0.21875,0.0966796875,0.79345703125,-1.46484375,-0.9765625,4,82
2025/07/05 10:06:39.886,36.2,0.391612647242403,0.487440230924661,73.4630907604174,0.21019322389122,0.550962377322992,0.302964718835021,0.727926573994725,0,0,0,0,0,,-0.9765625,-0.22998046875,0.10205078125,-0.1220703125,-2.13623046875,-0.30517578125,4,82
2025/07/05 10:06:39.986,36.3,0.391504575678094,0.489037969289888,73.4411505385942,0.303448805632106,0.694006956739626,0.37073479841832,0.911607770385759,0,0,0,0,0,,-0.97119140625,-0.22314453125,0.09912109375,0.79345703125,-1.77001953125,0.18310546875,4,82
2025/07/05 10:06:40.086,36.4,0.391727468464866,0.491658287598234,73.419210316771,0.331211230792342,0.72882824289091,0.389876194220509,0.973276840744861,0,0,0,0,0,,-0.97705078125,-0.2294921875,0.09765625,0.67138671875,-1.953125,-0.06103515625,4,82
2025/07/05 10:06:40.186,36.5,0.391961377402795,0.494277364466831,73.3972700949479,0.325646400028162,0.716137880937657,0.38439974249504,0.947218150227188,0,0,0,0,0,,-0.9716796875,-0.224609375,0.09619140625,0.30517578125,-1.77001953125,0,4,82
2025/07/05 10:06:40.286,36.6,0.392149283948117,0.496896441335428,73.388073716906,0.32008775584754,0.703479646517381,0.381663764355367,0.940724642917766,0,0,0,0,0,,-0.97509765625,-0.23046875,0.09716796875,0.42724609375,-2.3193359375,-0.1220703125,4,82
2025/07/05 10:06:40.386,36.7,0.392083026680037,0.499482791407391,73.3781583282228,0.297914770838615,0.668833839121397,0.36800628543083,0.898721165506282,0,0,0,0,0,,-0.97607421875,-0.22705078125,0.1005859375,0.244140625,-2.13623046875,0.30517578125,4,82
2025/07/05 10:06:40.486,36.8,0.391599464430339,0.500956365807785,73.3562181063996,0.264838575737892,0.625083560636006,0.346231618788434,0.844320629676771,0,0,0,0,0,,-0.97412109375,-0.2265625,0.10009765625,0.18310546875,-2.13623046875,0.732421875,4,82
2025/07/05 10:06:40.586,36.9,0.390358886609421,0.501446549517707,73.3349968952178,0.229251237423864,0.56938991633428,0.321847934955316,0.78106868020847,0,0,0,0,0,,-0.982421875,-0.21875,0.10205078125,0.3662109375,-2.25830078125,-0.18310546875,4,82
2025/07/05 10:06:40.686,37.0,0.38907194810186,0.50193673322763,73.3137756840359,0.188501216221465,0.511267512938934,0.289520236613827,0.712403432294552,0,0,0,0,0,,-0.97998046875,-0.2353515625,0.103515625,0.8544921875,-2.38037109375,0.30517578125,4,82
2025/07/05 10:06:40.786,37.1,0.387917486723216,0.502450848566726,73.2897260177561,0.253861623084283,0.61265347362392,0.335379742742391,0.841138956056529,0,0,0,0,0,,-0.9765625,-0.22705078125,0.0986328125,0.6103515625,-2.25830078125,0.244140625,4,82
2025/07/05 10:06:40.886,37.2,0.387444958680786,0.504212620598948,73.258589417891,0.31731074943042,0.706641202060905,0.381663764355367,0.976543747052193,0,0,0,0,0,,-0.97314453125,-0.2275390625,0.09814453125,0.42724609375,-1.52587890625,-0.244140625,4,82
2025/07/05 10:06:40.986,37.3,0.387114983497544,0.506815856835472,73.219381913071,0.314535284510142,0.700320088797397,0.381663764355367,0.970012067579245,0,0,0,0,0,,-0.9765625,-0.2294921875,0.1015625,0.30517578125,-1.77001953125,0.1220703125,4,82
2025/07/05 10:06:41.086,37.4,0.386794807225601,0.509726095825004,73.1988797125305,0.308988972321361,0.687701785758439,0.378929282512261,0.953720101631718,0,0,0,0,0,,-0.974609375,-0.232421875,0.10009765625,0.8544921875,-2.38037109375,-0.1220703125,4,82
2025/07/05 10:06:41.187,37.5,0.386384571356128,0.512449074949848,73.1882929006733,0.292386854382238,0.665696091967594,0.37073479841832,0.921294566942545,0,0,0,0,0,,-0.97412109375,-0.23095703125,0.1044921875,-0.06103515625,-2.13623046875,-0.244140625,4,82
2025/07/05 10:06:41.287,37.6,0.385281750604786,0.513551470713453,73.177706088816,0.264838575737892,0.625083560636006,0.351666401851233,0.866649215095873,0,0,0,0,0,,-0.9765625,-0.2333984375,0.1025390625,0.67138671875,-2.01416015625,0.06103515625,4,82
2025/07/05 10:06:41.387,37.7,0.383738220660596,0.513575511315465,73.1650098325021,0.229251237423864,0.575547552488757,0.32725626422843,0.809433079836746,0,0,0,0,0,,-0.978515625,-0.22998046875,0.1025390625,0.244140625,-2.44140625,-0.3662109375,4,82
2025/07/05 10:06:41.487,37.8,0.382170471810432,0.513727388624574,73.1629003880454,0.185796320334294,0.514309800787887,0.29758258707153,0.734149350063022,0,0,0,0,0,,-0.9755859375,-0.240234375,0.10302734375,0.67138671875,-2.50244140625,0.06103515625,4,82
2025/07/05 10:06:41.587,37.9,0.380602722960267,0.513879265933682,73.1529849993622,0.221074620842051,0.572467786499489,0.319145962489943,0.799960390058991,0,0,0,0,0,,-0.9755859375,-0.23095703125,0.103515625,0.67138671875,-2.38037109375,0.30517578125,4,82
2025/07/05 10:06:41.687,38.0,0.379467701135055,0.514870951619664,73.131044777539,0.297914770838615,0.687701785758439,0.373464801175464,0.956974250738119,0,0,0,0,0,,-0.96875,-0.2353515625,0.1015625,0.18310546875,-1.708984375,-0.1220703125,4,82
2025/07/05 10:06:41.787,38.1,0.379015125713704,0.517391970310942,73.0995956294781,0.30068102259686,0.690853377369556,0.378929282512261,0.960230519121197,0,0,0,0,0,,-0.97216796875,-0.2373046875,0.10546875,0.54931640625,-1.77001953125,0,4,82
2025/07/05 10:06:41.887,38.2,0.378698560950163,0.519795877547701,73.0773904469265,0.295150048663945,0.681404555800741,0.373464801175464,0.943970342431606,0,0,0,0,0,,-0.97412109375,-0.240234375,0.10546875,0.6103515625,-2.50244140625,-0.06103515625,4,82
2025/07/05 10:06:41.987,38.3,0.378304248899957,0.521966715573391,73.0579661320056,0.284106422030728,0.665696091967594,0.36800628543083,0.924527674022862,0,0,0,0,0,,-0.97412109375,-0.23828125,0.10595703125,0.42724609375,-2.13623046875,0.06103515625,4,82
2025/07/05 10:06:42.087,38.4,0.377692199304964,0.523597351783629,73.0265169839448,0.259347087074408,0.625083560636006,0.348948271898185,0.873047168528661,0,0,0,0,0,,-0.9716796875,-0.240234375,0.10693359375,-0.06103515625,-2.3193359375,0.42724609375,4,82
2025/07/05 10:06:42.187,38.5,0.376430964746022,0.524148022938049,72.9950678358839,0.226524212580975,0.581712781291464,0.32725626422843,0.81259463538027,0,0,0,0,0,,-0.9697265625,-0.23828125,0.1044921875,0.732421875,-1.52587890625,-0.67138671875,4,82
2025/07/05 10:06:42.287,38.6,0.375086084872817,0.523727387457663,72.975643520963,0.191207576193085,0.52954906868207,0.29758258707153,0.746618184269234,0,0,0,0,0,,-0.9736328125,-0.24267578125,0.10595703125,0,-1.8310546875,0.30517578125,4,82
2025/07/05 10:06:42.387,38.7,0.374093362103695,0.523768584726703,72.9562192060421,0.248382170562747,0.62197314067536,0.33809050449244,0.853877816260697,0,0,0,0,0,,-0.96923828125,-0.24072265625,0.109375,0.48828125,-2.197265625,0.48828125,4,82
2025/07/05 10:06:42.487,38.8,0.373557217308173,0.524567077055598,72.9247700579813,0.306218121640587,0.716137880937657,0.378929282512261,0.973276840744861,0,0,0,0,0,,-0.9736328125,-0.23779296875,0.103515625,0.79345703125,-2.44140625,-0.06103515625,4,82
2025/07/05 10:06:42.587,38.9,0.37353133959599,0.526569514872519,72.8933209099204,0.306218121640587,0.709804757956062,0.378929282512261,0.970012067579245,0,0,0,0,0,,-0.9736328125,-0.2568359375,0.10400390625,-0.06103515625,-2.13623046875,1.46484375,4,82
2025/07/05 10:06:42.687,39.0,0.373732548745204,0.529058795440024,72.8738965949995,0.303448805632106,0.709804757956062,0.381663764355367,0.966749424771475,0,0,0,0,0,,-0.96728515625,-0.2353515625,0.10595703125,-0.18310546875,-2.44140625,1.89208984375,4,82
2025/07/05 10:06:42.787,39.1,0.374016993125588,0.531530189711128,72.8639812063163,0.295150048663945,0.700320088797397,0.373464801175464,0.937481048950305,0,0,0,0,0,,-0.97314453125,-0.228515625,0.10546875,-0.67138671875,-2.44140625,0.6103515625,4,82
2025/07/05 10:06:42.887,39.2,0.374225441496464,0.533397761808689,72.8618717618596,0.262092077494983,0.643786824061296,0.351666401851233,0.879453319213445,0,0,0,0,0,,-0.9765625,-0.22216796875,0.109375,0.06103515625,-2.197265625,0.244140625,4,82
2025/07/05 10:06:42.987,39.3,0.373905477552438,0.533574661331087,72.8597623174029,0.226524212580975,0.587885621489686,0.32455136834126,0.815758191275428,0,0,0,0,0,,-0.96875,-0.23828125,0.10888671875,1.220703125,-2.38037109375,-0.9765625,4,82
2025/07/05 10:06:43.087,39.4,0.373548122027179,0.533128786923716,72.8576528729462,0.193915401834948,0.541774013465237,0.29758258707153,0.749740257380661,0,0,0,0,0,,-0.97607421875,-0.2451171875,0.1123046875,0.3662109375,-1.953125,-0.79345703125,4,82
2025/07/05 10:06:43.187,39.5,0.373540715717129,0.533142157731044,72.8576528729462,0.264838575737892,0.659426498763049,0.348948271898185,0.892290296548388,0,0,0,0,0,,-0.97216796875,-0.2421875,0.10546875,1.15966796875,-1.708984375,0.54931640625,4,82
2025/07/05 10:06:43.287,39.6,0.373924564299864,0.533714048546031,72.8456280398062,0.322866305474751,0.751114175665463,0.387137218569713,1.01262130546814,0,0,0,0,0,,-0.97314453125,-0.23828125,0.103515625,0.54931640625,-2.01416015625,0.3662109375,4,82
2025/07/05 10:06:43.388,39.7,0.374758710517649,0.535105270283687,72.8336032066663,0.325646400028162,0.757499872479144,0.389876194220509,1.01262130546814,0,0,0,0,0,,-0.9677734375,-0.23876953125,0.1015625,0.48828125,-2.01416015625,-0.1220703125,4,82
2025/07/05 10:06:43.488,39.8,0.375834310826195,0.537063568167172,72.8336032066663,0.32008775584754,0.744736623875436,0.38439974249504,0.992910373533157,0,0,0,0,0,,-0.97412109375,-0.2451171875,0.109375,0.06103515625,-2.0751953125,0.06103515625,4,82
2025/07/05 10:06:43.588,39.9,0.377173676480803,0.539096536079785,72.835712651123,0.306218121640587,0.722479035783142,0.373464801175464,0.960230519121197,0,0,0,0,0,,-0.97412109375,-0.2451171875,0.109375,0.06103515625,-2.0751953125,0.06103515625,4,82
2025/07/05 10:06:43.688,40.0,0.378460490545535,0.540682431502211,72.8462994629802,0.281349322470659,0.684552179402012,0.351666401851233,0.911607770385759,0,0,0,0,0,,-0.98046875,-0.22998046875,0.11083984375,1.52587890625,-1.77001953125,2.74658203125,4,82
2025/07/05 10:06:43.788,40.1,0.379570935991795,0.541878454373343,72.8674730866947,0.251121146213543,0.640664750949869,0.32725626422843,0.847504329195667,0,0,0,0,0,,-0.96826171875,-0.24365234375,0.10400390625,1.15966796875,0.9765625,1.5869140625,4,82
2025/07/05 10:06:43.888,40.2,0.380176162001232,0.542406713392373,72.8964526546357,0.212911353844268,0.581712781291464,0.300272928769742,0.78106868020847,0,0,0,0,0,,-0.984375,-0.240234375,0.09326171875,1.77001953125,-0.18310546875,2.685546875,4,82
2025/07/05 10:06:43.988,40.3,0.381083191909533,0.542631840634821,72.9349411488143,0.270336102323057,0.678258912459809,0.33809050449244,0.892290296548388,0,0,0,0,0,,-0.98193359375,-0.24853515625,0.0947265625,-1.0986328125,0.67138671875,5.31005859375,4,82
2025/07/05 10:06:44.088,40.4,0.382247056732101,0.543535121401476,72.9639207167553,0.333995970449675,0.779914254862945,0.381663764355367,1.02910664821438,0,0,0,0,0,,-0.94970703125,-0.19921875,0.05419921875,1.3427734375,-0.48828125,5.67626953125,4,82
2025/07/05 10:06:44.188,40.5,0.383858414670473,0.545480749376874,72.9829848960131,0.336782261926346,0.776706041775335,0.38439974249504,1.0258052285332,0,0,0,0,0,,-0.97998046875,-0.20458984375,0.0927734375,-1.28173828125,-9.521484375,3.41796875,4,82
2025/07/05 10:06:44.288,40.6,0.385647673998589,0.548110451090687,73.0020490752708,0.331211230792342,0.757499872479144,0.376196295329982,1.00275612648585,0,0,0,0,0,,-0.970703125,-0.181640625,0.12646484375,-5.9814453125,-10.92529296875,3.0517578125,4,82
2025/07/05 10:06:44.388,40.7,0.387641054935149,0.551003135187933,73.0232226989853,0.314535284510142,0.738367196357406,0.357107098716138,0.956974250738119,0,0,0,0,0,,-0.98681640625,-0.1875,0.158203125,-3.96728515625,-9.21630859375,-2.197265625,4,82
2025/07/05 10:06:44.488,40.8,0.389446336115815,0.553320910087895,73.0447744231232,0.292386854382238,0.703479646517381,0.335379742742391,0.905160316332475,0,0,0,0,0,,-0.982421875,-0.24169921875,0.11181640625,0.79345703125,0.244140625,-2.38037109375,4,82
2025/07/05 10:06:44.588,40.9,0.391033983009627,0.555092062651492,73.0755701127703,0.267586583460537,0.668833839121397,0.319145962489943,0.869847168467119,0,0,0,0,0,,-0.96826171875,-0.2197265625,0.126953125,-2.01416015625,-4.21142578125,3.2958984375,4,82
2025/07/05 10:06:44.688,41.0,0.392458339339434,0.556066025716111,73.1074257232767,0.226524212580975,0.609550774222158,0.29220624254761,0.796806810688921,0,0,0,0,0,,-0.978515625,-0.1923828125,0.1396484375,1.52587890625,-2.62451171875,-0.42724609375,4,82
2025/07/05 10:06:44.788,41.1,0.393390328502213,0.55595211399387,73.1487902600208,0.231979750411354,0.615758099569987,0.28683567283095,0.793655219077805,0,0,0,0,0,,-0.97607421875,-0.21533203125,0.13232421875,-0.244140625,-1.708984375,-0.48828125,4,82
2025/07/05 10:06:44.888,41.2,0.394692576575448,0.5569431525252,73.1929356643956,0.311761359376306,0.741550895876302,0.343516440918022,0.970012067579245,0,0,0,0,0,,-0.98291015625,-0.20263671875,0.15087890625,2.8076171875,-3.0517578125,1.0986328125,4,82
2025/07/05 10:06:44.988,41.3,0.396337952255865,0.558976531025682,73.2343002011397,0.331211230792342,0.779914254862945,0.354386010254152,0.999472054167132,0,0,0,0,0,,-0.97705078125,-0.21484375,0.14501953125,-0.30517578125,-2.74658203125,-1.52587890625,4,82
2025/07/05 10:06:45.088,41.4,0.39820106548107,0.561686017866045,73.2756647378838,0.328428041226744,0.763893735147754,0.346231618788434,0.979812789290575,0,0,0,0,0,,-0.98095703125,-0.2099609375,0.1435546875,-1.03759765625,-2.685546875,-0.48828125,4,82
2025/07/05 10:06:45.188,41.5,0.400328398645862,0.56497038907942,73.3170292746279,0.32008775584754,0.754306004644262,0.340802736685604,0.963488909543124,0,0,0,0,0,,-0.98095703125,-0.2119140625,0.14208984375,1.77001953125,-1.40380859375,-1.708984375,4,82
2025/07/05 10:06:45.288,41.6,0.402491740342822,0.568127356623344,73.3583938113719,0.297914770838615,0.719307453104332,0.32455136834126,0.918063549107659,0,0,0,0,0,,-0.97265625,-0.22216796875,0.1318359375,1.5869140625,-0.3662109375,-0.30517578125,4,82
2025/07/05 10:06:45.388,41.7,0.404044374188267,0.570184132389307,73.399758348116,0.270336102323057,0.678258912459809,0.302964718835021,0.860259437963628,0,0,0,0,0,,-0.970703125,-0.22021484375,0.12890625,3.0517578125,0.67138671875,0.1220703125,4,82
2025/07/05 10:06:45.489,41.8,0.405410863336667,0.571244017414658,73.4411228848601,0.231979750411354,0.62197314067536,0.273434432094646,0.790505612721378,0,0,0,0,0,,-0.97314453125,-0.21923828125,0.1298828125,1.708984375,-1.0986328125,0.54931640625,4,82
2025/07/05 10:06:45.589,41.9,0.406435385258814,0.571640350248772,73.4824874216042,0.21019322389122,0.587885621489686,0.257400212285677,0.749740257380661,0,0,0,0,0,,-0.97412109375,-0.21826171875,0.12451171875,2.38037109375,-1.03759765625,-0.06103515625,4,82
2025/07/05 10:06:45.689,42.0,0.407689966118765,0.572570530725965,73.5238519583483,0.278593742392373,0.700320088797397,0.302964718835021,0.892290296548388,0,0,0,0,0,,-0.970703125,-0.2158203125,0.13037109375,0.244140625,-2.8076171875,0.79345703125,4,82
2025/07/05 10:06:45.789,42.1,0.409171320775894,0.574381425645623,73.5557075688547,0.306218121640587,0.747924382941332,0.32455136834126,0.960230519121197,0,0,0,0,0,,-0.97900390625,-0.20849609375,0.13671875,-1.03759765625,-2.8076171875,-0.79345703125,4,82
2025/07/05 10:06:45.889,42.2,0.41075405560152,0.576498058699694,73.5797572351346,0.295150048663945,0.732005872438914,0.316445449367048,0.934239557799176,0,0,0,0,0,,-0.97119140625,-0.22021484375,0.1279296875,0.91552734375,-1.15966796875,-1.8310546875,4,82
2025/07/05 10:06:45.989,42.3,0.412467913239836,0.579002913054437,73.6038069014144,0.286865042749255,0.712970316735744,0.311048794849086,0.911607770385759,0,0,0,0,0,,-0.9775390625,-0.2314453125,0.13134765625,1.64794921875,-2.01416015625,-1.220703125,4,82
2025/07/05 10:06:46.089,42.4,0.414010344968379,0.58144141845643,73.6278565676943,0.264838575737892,0.678258912459809,0.29758258707153,0.876249217901944,0,0,0,0,0,,-0.97265625,-0.2236328125,0.12646484375,1.953125,-1.03759765625,-0.6103515625,4,82
2025/07/05 10:06:46.189,42.5,0.414899786417551,0.582966104035895,73.6497967895175,0.234709753168498,0.63754462609012,0.273434432094646,0.81259463538027,0,0,0,0,0,,-0.97607421875,-0.23974609375,0.12890625,0,-3.60107421875,-0.06103515625,4,82
2025/07/05 10:06:46.289,42.6,0.415259539479218,0.583488124160678,73.6717370113407,0.199335456485474,0.578629216639001,0.249402343464148,0.75286428117832,0,0,0,0,0,,-0.96923828125,-0.2255859375,0.126953125,0.91552734375,-2.38037109375,1.220703125,4,82
2025/07/05 10:06:46.389,42.7,0.415338359765654,0.582921298228711,73.6936772331639,0.17229374684212,0.538714973953793,0.228137027303014,0.703112627653837,0,0,0,0,0,,-0.9677734375,-0.22509765625,0.134765625,-1.953125,-3.47900390625,0.732421875,4,82
2025/07/05 10:06:46.489,42.8,0.41542365723051,0.582618436192115,73.715617454987,0.237441247323016,0.640664750949869,0.268083976875152,0.828432469102507,0,0,0,0,0,,-0.97900390625,-0.212890625,0.14404296875,-0.30517578125,-3.7841796875,0.79345703125,4,82
2025/07/05 10:06:46.589,42.9,0.41594816201687,0.583039790683376,73.7354482323535,0.267586583460537,0.697162526377653,0.294893692182583,0.918063549107659,0,0,0,0,0,,-0.97412109375,-0.2275390625,0.14404296875,-0.18310546875,-2.74658203125,0.18310546875,4,82
2025/07/05 10:06:46.689,43.0,0.416347483100912,0.584257090502186,73.7468016423194,0.259347087074408,0.678258912459809,0.289520236613827,0.905160316332475,0,0,0,0,0,,-0.97119140625,-0.22705078125,0.13916015625,0.3662109375,-2.0751953125,1.15966796875,4,82
2025/07/05 10:06:46.789,43.1,0.416890153299008,0.585668267893852,73.7496776848849,0.251121146213543,0.662560312670397,0.284152549651191,0.8826594750947,0,0,0,0,0,,-0.9697265625,-0.224609375,0.1337890625,0.244140625,-3.23486328125,0.6103515625,4,82
2025/07/05 10:06:46.889,43.2,0.417171351467794,0.586663259104655,73.7525537274503,0.229251237423864,0.628195916743657,0.270758488800646,0.844320629676771,0,0,0,0,0,,-0.97412109375,-0.23583984375,0.1337890625,-3.23486328125,-2.74658203125,1.708984375,4,82
2025/07/05 10:06:46.989,43.3,0.417086896625801,0.587084538849642,73.7554297700157,0.199335456485474,0.584798248791719,0.249402343464148,0.787357989120106,0,0,0,0,0,,-0.97119140625,-0.201171875,0.14306640625,-3.5400390625,-4.0283203125,1.8310546875,4,82
2025/07/05 10:06:47.089,43.4,0.416792159645259,0.586342498055087,73.7583058125811,0.161517880762776,0.520399935433023,0.222834799949828,0.715504207541523,0,0,0,0,0,,-0.97607421875,-0.2216796875,0.146484375,0.42724609375,-4.0283203125,0.54931640625,4,82
2025/07/05 10:06:47.189,43.5,0.415850454469519,0.584680694901084,73.7611818551466,0.156138644175618,0.514309800787887,0.217538189363957,0.690751682111084,0,0,0,0,0,,-0.99169921875,-0.21044921875,0.16064453125,-0.9765625,1.77001953125,4.7607421875,4,82
2025/07/05 10:06:47.289,43.6,0.415289259233112,0.583521208850327,73.77358478871,0.229251237423864,0.63754462609012,0.273434432094646,0.866649215095873,0,0,0,0,0,,-0.962890625,-0.1923828125,0.13720703125,2.99072265625,0.9765625,2.44140625,4,82
2025/07/05 10:06:47.389,43.7,0.4148129936715,0.583190276415487,73.7962336239127,0.240174234505296,0.653164757274027,0.281470865529254,0.898721165506282,0,0,0,0,0,,-0.98974609375,-0.19384765625,0.15283203125,1.708984375,-2.01416015625,1.77001953125,4,82
2025/07/05 10:06:47.489,43.8,0.414477733033306,0.583687259729107,73.8192233693334,0.229251237423864,0.628195916743657,0.273434432094646,0.869847168467119,0,0,0,0,0,,-0.9814453125,-0.17626953125,0.13818359375,3.662109375,3.23486328125,-0.54931640625,4,82
2025/07/05 10:06:47.589,43.9,0.414204294859524,0.58435002212082,73.8510209951107,0.218352050709172,0.609550774222158,0.26273924101027,0.834781676210275,0,0,0,0,0,,-0.9921875,-0.25634765625,0.10693359375,2.74658203125,3.7841796875,0.244140625,4,82
2025/07/05 10:06:47.690,44.0,0.413723091535539,0.584710425627989,73.8817587000287,0.191207576193085,0.566313939660525,0.244077529408711,0.784212345779174,0,0,0,0,0,,-0.96728515625,-0.20361328125,0.11328125,2.50244140625,1.89208984375,1.5869140625,4,82
2025/07/05 10:06:47.790,44.1,0.413017190094661,0.584477387548154,73.9227423065861,0.164209670828055,0.526497497073468,0.230790250992492,0.749740257380661,0,0,0,0,0,,-0.96728515625,-0.20361328125,0.11328125,2.50244140625,1.89208984375,1.5869140625,4,82
2025/07/05 10:06:47.890,44.2,0.411731698872286,0.582770101554259,73.9637259131435,0.123984193003304,0.462840984988227,0.201681939525148,0.672267372979891,0,0,0,0,0,,-0.97216796875,-0.224609375,0.1015625,3.84521484375,2.25830078125,-0.732421875,4,82
2025/07/05 10:06:47.990,44.3,0.409863467909483,0.57999670695389,74.0047095197009,0.17229374684212,0.538714973953793,0.233444883348714,0.755990258101331,0,0,0,0,0,,-0.9873046875,-0.19775390625,0.10205078125,0.54931640625,-0.3662109375,-0.3662109375,4,82
2025/07/05 10:06:48.090,44.4,0.408408195220036,0.57791235683655,74.0456931262582,0.229251237423864,0.63442644705205,0.278790618922327,0.8826594750947,0,0,0,0,0,,-0.99609375,-0.1787109375,0.1064453125,0.48828125,0.91552734375,1.5869140625,4,82
2025/07/05 10:06:48.190,44.5,0.407291965274371,0.576677645606987,74.0866767328156,0.226524212580975,0.62197314067536,0.276111808290077,0.863453305798509,0,0,0,0,0,,-0.99658203125,-0.20751953125,0.09716796875,-0.48828125,1.5869140625,-0.54931640625,4,82
2025/07/05 10:06:48.290,44.6,0.406089022831517,0.575684111135985,74.127660339373,0.215630962247186,0.600254211409771,0.270758488800646,0.837959305758279,0,0,0,0,0,,-0.9658203125,-0.20751953125,0.072265625,0.732421875,4.39453125,0.67138671875,4,82
2025/07/05 10:06:48.390,44.7,0.404804421737174,0.575063394773075,74.1686439459304,0.204761392911056,0.575547552488757,0.268083976875152,0.822091314257022,0,0,0,0,0,,-0.9755859375,-0.21533203125,0.05712890625,3.662109375,0.79345703125,0.1220703125,4,82
2025/07/05 10:06:48.490,44.8,0.403414038914552,0.574184797335678,74.2096275524877,0.174991346004126,0.535657804842655,0.252066878526137,0.768513745989762,0,0,0,0,0,,-0.986328125,-0.2021484375,0.06494140625,1.52587890625,-1.0986328125,3.11279296875,4,82
2025/07/05 10:06:48.590,44.9,0.401905947231463,0.572614377067996,74.2506111590451,0.134679384087681,0.471885304473586,0.222834799949828,0.687666214610829,0,0,0,0,0,,-0.986328125,-0.166015625,0.0673828125,0.54931640625,0.6103515625,0.6103515625,4,82
2025/07/05 10:06:48.690,45.0,0.399972091519454,0.570216951796938,74.2915947656025,0.113311830519171,0.435805773834852,0.199044113072253,0.64161123816202,0,0,0,0,0,,-0.986328125,-0.2021484375,0.06640625,2.9296875,-0.48828125,-1.708984375,4,82
2025/07/05 10:06:48.790,45.1,0.397910801915507,0.567416876264939,74.3325783721599,0.193915401834948,0.563239854149924,0.252066878526137,0.796806810688921,0,0,0,0,0,,-0.9853515625,-0.20947265625,0.06591796875,3.11279296875,0.3662109375,-1.03759765625,4,82
2025/07/05 10:06:48.890,45.2,0.39594183701304,0.565540892604041,74.3735619787173,0.226524212580975,0.615758099569987,0.278790618922327,0.876249217901944,0,0,0,0,0,,-0.98095703125,-0.2099609375,0.0458984375,2.9296875,-0.244140625,0.91552734375,4,82
2025/07/05 10:06:48.990,45.3,0.394309365567009,0.564191410588411,74.4145455852746,0.218352050709172,0.597159194334472,0.273434432094646,0.850690057194802,0,0,0,0,0,,-0.98095703125,-0.1962890625,0.04443359375,0.48828125,-1.708984375,-0.3662109375,4,82
2025/07/05 10:06:49.090,45.4,0.392544485317737,0.56282691261364,74.455529191832,0.207476570781468,0.578629216639001,0.268083976875152,0.822091314257022,0,0,0,0,0,,-0.9814453125,-0.20263671875,0.04541015625,1.220703125,-1.89208984375,0.18310546875,4,82
2025/07/05 10:06:49.190,45.5,0.391052176240252,0.561718099896903,74.4965127983894,0.18309288694835,0.538714973953793,0.254732834294706,0.777926989922578,0,0,0,0,0,,-0.978515625,-0.19970703125,0.04833984375,0.48828125,-2.8076171875,-0.6103515625,4,82
2025/07/05 10:06:49.290,45.6,0.389445566114615,0.560584312194097,74.5480896252857,0.150765188606861,0.490023171735486,0.233444883348714,0.721711532889352,0,0,0,0,0,,-0.986328125,-0.20849609375,0.05810546875,-0.8544921875,-3.60107421875,-0.8544921875,4,82
2025/07/05 10:06:49.390,45.7,0.387779455051289,0.559325647939831,74.5996664521821,0.110647295457182,0.432810865134652,0.201681939525148,0.644668407273158,0,0,0,0,0,,-0.98828125,-0.2119140625,0.06787109375,-0.18310546875,-3.173828125,-0.48828125,4,82
2025/07/05 10:06:49.490,45.8,0.385750058881044,0.557333349491478,74.6512432790785,0.137356760283111,0.474903716835398,0.217538189363957,0.690751682111084,0,0,0,0,0,,-0.98193359375,-0.20166015625,0.06103515625,0.732421875,-1.5869140625,-0.3662109375,4,82
2025/07/05 10:06:49.590,45.9,0.383782563209067,0.555531197034718,74.7028201059748,0.212911353844268,0.590974901739643,0.268083976875152,0.837959305758279,0,0,0,0,0,,-0.98876953125,-0.20263671875,0.056640625,0.91552734375,-1.0986328125,-0.18310546875,4,82
2025/07/05 10:06:49.690,46.0,0.38225164547682,0.553849292173686,74.7438037125322,0.221074620842051,0.600254211409771,0.270758488800646,0.853877816260697,0,0,0,0,0,,-0.984375,-0.2119140625,0.05517578125,1.0986328125,-1.89208984375,-0.42724609375,4,82
2025/07/05 10:06:49.791,46.1,0.380790332333746,0.55265964921179,74.7847873190896,0.21019322389122,0.581712781291464,0.265410894787698,0.825260886423698,0,0,0,0,0,,-0.9775390625,-0.212890625,0.05126953125,1.220703125,-1.953125,-0.6103515625,4,82
2025/07/05 10:06:49.891,46.2,0.37946357189105,0.5514921918856,74.8363641459859,0.199335456485474,0.563239854149924,0.257400212285677,0.793655219077805,0,0,0,0,0,,-0.98095703125,-0.2197265625,0.05419921875,0.48828125,-2.74658203125,-0.732421875,4,82
2025/07/05 10:06:49.991,46.3,0.378021373693074,0.550340341627867,74.8985341932213,0.17229374684212,0.526497497073468,0.238758380050147,0.746618184269234,0,0,0,0,0,,-0.98388671875,-0.21435546875,0.06494140625,-0.1220703125,-3.47900390625,0,4,82
2025/07/05 10:06:50.091,46.4,0.37648881177633,0.549154830311866,74.9607042404566,0.140035570915361,0.477923952460602,0.217538189363957,0.684582649958366,0,0,0,0,0,,-0.9853515625,-0.21337890625,0.06396484375,0.48828125,-1.953125,-0.732421875,4,82
2025/07/05 10:06:50.191,46.5,0.374973049471896,0.547451868909806,75.022874287692,0.102662199388739,0.423836887388259,0.188506701531449,0.620263234107252,0,0,0,0,0,,-0.9775390625,-0.220703125,0.0625,0.6103515625,-2.01416015625,-0.48828125,4,82
2025/07/05 10:06:50.291,46.6,0.373302342843069,0.545288127130121,75.0755174439293,0.161517880762776,0.514309800787887,0.225485210786071,0.721711532889352,0,0,0,0,0,,-0.97607421875,-0.220703125,0.06396484375,0.18310546875,-1.953125,-0.1220703125,4,82
2025/07/05 10:06:50.391,46.7,0.371745530436447,0.543243758582352,75.1179146985274,0.218352050709172,0.609550774222158,0.26273924101027,0.841138956056529,0,0,0,0,0,,-0.97998046875,-0.22216796875,0.05908203125,1.03759765625,-2.13623046875,-0.42724609375,4,82
2025/07/05 10:06:50.491,46.8,0.370548628554425,0.541774081246099,75.148999722145,0.218352050709172,0.606449998975187,0.260069014017303,0.834781676210275,0,0,0,0,0,,-0.9755859375,-0.2197265625,0.060546875,0.54931640625,-1.77001953125,-0.42724609375,4,82
2025/07/05 10:06:50.591,46.9,0.369507538494843,0.540510386720379,75.1698388441234,0.21019322389122,0.590974901739643,0.254732834294706,0.809433079836746,0,0,0,0,0,,-0.97802734375,-0.22607421875,0.06298828125,0.48828125,-2.38037109375,-0.79345703125,4,82
2025/07/05 10:06:50.691,47.0,0.368616308768686,0.539244179249363,75.1906779661017,0.196624694735426,0.56938991633428,0.244077529408711,0.774787272440762,0,0,0,0,0,,-0.978515625,-0.228515625,0.064453125,0.30517578125,-2.197265625,-0.06103515625,4,82
2025/07/05 10:06:50.791,47.1,0.367736458192606,0.538053703689283,75.2224576271186,0.166902910820723,0.52954906868207,0.222834799949828,0.718606906943286,0,0,0,0,0,,-0.978515625,-0.22607421875,0.064453125,0.3662109375,-2.3193359375,-0.06103515625,4,82
2025/07/05 10:06:50.891,47.2,0.367007804064589,0.536820298094215,75.2648305084745,0.134679384087681,0.480946013553203,0.201681939525148,0.659982354697691,0,0,0,0,0,,-0.98876953125,-0.2197265625,0.0654296875,0,-1.8310546875,-0.54931640625,4,82
2025/07/05 10:06:50.991,47.3,0.366572978853045,0.535642268727109,75.3072033898305,0.0920352029855263,0.41786317111556,0.170119499576003,0.580857150154764,0,0,0,0,0,,-0.9814453125,-0.23193359375,0.06982421875,0.54931640625,-1.77001953125,0.6103515625,4,82
