# Measure raw data (C) NeU Corporation. 2023. All rights reserved,,,,,,,,,,,,,,,,,,,,,,
# Raw data export format,,,,,,,,,,,,,,,,,,,,,,
# Ver 3.00,,,,,,,,,,,,,,,,,,,,,,
# ,,,,,,,,,,,,,,,,,,,,,,
# Sensor Informations,,,,,,,,,,,,,,,,,,,,,,
# Type,HOT-2000,,,,,,,,,,,,,,,,,,,,,
# ID,C0:84:18:33:34:4B,,,,,,,,,,,,,,,,,,,,,
# Version,2023072701,,,,,,,,,,,,,,,,,,,,,
# Connection,Bluetooth,,,,,,,,,,,,,,,,,,,,,
# Gain,15,37,14,29,,,,,,,,,,,,,,,,,,
# Average,1928,1850,1935,1805,,,,,,,,,,,,,,,,,,
# HbT Offset,3.88837917492873,3.52467562903818,3.63962321844882,4.0366779915555,,,,,,,,,,,,,,,,,,
# ,,,,,,,,,,,,,,,,,,,,,,
# Device time,Headset time,HbT change(left subtracted),HbT change(right subtracted),Estimated pulse rate,HbT change(left SD1cm),HbT change(left SD3cm),HbT change(right SD1cm),HbT change(right SD3cm),Saturation(left SD1cm),saturation(left SD3cm),Saturation(right SD1cm),saturation(right SD3cm),Noise detection flag,Mark,Accerelo-X,Accerelo-Y,Accerelo-Z,Gyro-X, Gyro-Y, Gyro-Z,Battery-Volt, Battery-Remain
2025/07/05 09:54:40.028,0.0,0,0,0,0,0,0,0,0,0,0,0,0, ,-0.9873046875,-0.19873046875,0.06396484375,0.244140625,-2.25830078125,0.1220703125,4.04,85
2025/07/05 09:54:40.128,0.1,0.0139510673161602,0.0346641736432396,0,0.0668637929667475,0.0947659275990689,0.0329699389051883,0.102298286191667,0,0,0,0,0, ,-0.9873046875,-0.19873046875,0.06396484375,0.244140625,-2.25830078125,0.1220703125,4.04,85
2025/07/05 09:54:40.228,0.2,0.0209266009742408,0.0519962604648592,0,0.13736387530719,0.186231891472747,0.0764151387622105,0.229603605286036,0,0,0,0,0, ,-0.98876953125,-0.18896484375,0.06201171875,0.3662109375,-1.28173828125,0.54931640625,4.04,85
2025/07/05 09:54:40.328,0.3,0.0254650263691577,0.0698422756549933,0,0.140095369461708,0.178545494992851,0.0764151387622105,0.218155403546255,0,0,0,0,0, ,-0.98583984375,-0.1923828125,0.060546875,0.732421875,-1.708984375,0.18310546875,4.04,85
2025/07/05 09:54:40.428,0.4,0.0293941746982835,0.0870297204962722,0,0.13736387530719,0.181106314472897,0.0738490622750461,0.212441117295155,0,0,0,0,0, ,-0.9853515625,-0.18994140625,0.05810546875,0.79345703125,-1.77001953125,-0.06103515625,4.04,85
2025/07/05 09:54:40.528,0.5,0.0318536904306152,0.0955478432873431,0,0.121006172847864,0.163208059882087,0.0661587250622562,0.1868073389454,0,0,0,0,0, ,-0.98486328125,-0.19384765625,0.0595703125,0.1220703125,-2.25830078125,-0.48828125,4.04,85
2025/07/05 09:54:40.628,0.6,0.0335783898645498,0.0997313050533098,0,0.0884504424729866,0.132673614296189,0.0482604704714462,0.141558162020076,0,0,0,0,0, ,-0.98974609375,-0.19482421875,0.06005859375,0.42724609375,-2.197265625,0.244140625,4.04,85
2025/07/05 09:54:40.728,0.7,0.034954695516573,0.100765854719392,0,0.0480516237829174,0.0872187564672591,0.0228021673778804,0.0827833467386698,0,0,0,0,0, ,-0.9931640625,-0.18798828125,0.06103515625,-0.06103515625,-1.77001953125,-0.18310546875,4.04,85
2025/07/05 09:54:40.828,0.8,0.0361132550549016,0.099832334323047,0,0.0266383151419962,0.0696528666418255,0.00758917412408833,0.0550363281087858,0,0,0,0,0, ,-0.98291015625,-0.20068359375,0.0625,0.6103515625,-2.25830078125,0.06103515625,4.04,85
2025/07/05 09:54:40.928,0.9,0.0369020633186583,0.10076802633781,0,0.123728742980743,0.206786904699065,0.0635979055822098,0.215297444094053,0,0,0,0,0, ,-0.97998046875,-0.19482421875,0.06103515625,0.3662109375,-2.01416015625,0.54931640625,4.04,85
2025/07/05 09:54:41.028,1.0,0.038062788939109,0.104165814983833,0,0.164746199633675,0.261149334302569,0.0918393152884236,0.293041594883726,0,0,0,0,0, ,-0.984375,-0.1904296875,0.0576171875,1.03759765625,-2.01416015625,0.3662109375,4.04,85
2025/07/05 09:54:41.129,1.1,0.0390824986345452,0.107774866987662,0,0.1620012092131,0.258547200532938,0.0944146436613482,0.281447386962747,0,0,0,0,0, ,-0.98681640625,-0.1953125,0.05859375,0.30517578125,-1.77001953125,-0.1220703125,4.04,85
2025/07/05 09:54:41.229,1.2,0.0399322567140753,0.110782410324186,0,0.156515745222975,0.261149334302569,0.096991299181135,0.278553030919266,0,0,0,0,0, ,-0.984375,-0.197265625,0.05908203125,0.42724609375,-2.197265625,-0.1220703125,4.04,85
2025/07/05 09:54:41.329,1.3,0.0418424909530377,0.113327254685861,0,0.134633872550046,0.230012752567669,0.0892653126959302,0.246825206440636,0,0,0,0,0, ,-0.9833984375,-0.1962890625,0.0595703125,0.6103515625,-2.0751953125,-0.18310546875,4.04,85
2025/07/05 09:54:41.429,1.4,0.0443328386365103,0.115090962384415,0,0.101989578624166,0.191362728172852,0.0712843020621055,0.198183907961553,0,0,0,0,0, ,-0.98681640625,-0.2021484375,0.0615234375,0.3662109375,-1.89208984375,0.79345703125,4.04,85
2025/07/05 09:54:41.529,1.5,0.0471250264363099,0.11670486970583,0,0.0561053166793366,0.135211041361808,0.0508134447038295,0.138743639049335,0,0,0,0,0, ,-0.9765625,-0.1953125,0.05224609375,1.46484375,-1.3427734375,0.244140625,4.04,85
2025/07/05 09:54:41.629,1.6,0.0495681907611344,0.118117038612069,0,0.0668637929667475,0.165761034114471,0.0584801979445331,0.161304308687486,0,0,0,0,0, ,-0.982421875,-0.19873046875,0.06103515625,-0.244140625,-3.11279296875,-0.6103515625,4.04,85
2025/07/05 09:54:41.729,1.7,0.0519005631203602,0.120038772687143,0,0.153775268352235,0.289862542514115,0.10989453195632,0.307572264585846,0,0,0,0,0, ,-0.99658203125,-0.203125,0.0654296875,0.54931640625,-2.01416015625,-0.67138671875,4.04,85
2025/07/05 09:54:41.829,1.8,0.0545769432858492,0.122933107798289,0,0.172990224461749,0.302968709718189,0.117652485297812,0.325064993537751,0,0,0,0,0, ,-0.9833984375,-0.2021484375,0.06201171875,0.54931640625,-2.0751953125,0.67138671875,4.04,85
2025/07/05 09:54:41.929,1.9,0.0572151441987071,0.126298377359754,0,0.170240705599229,0.305594070726521,0.117652485297812,0.310483472776092,0,0,0,0,0, ,-0.98193359375,-0.19970703125,0.0625,0.18310546875,-2.3193359375,0.18310546875,4.04,85
2025/07/05 09:54:42.029,2.0,0.0595895250202792,0.129198320367755,0,0.1620012092131,0.29772211959828,0.112479179171018,0.295944352541738,0,0,0,0,0, ,-0.9853515625,-0.20751953125,0.06689453125,0.1220703125,-2.25830078125,0.1220703125,4.04,85
2025/07/05 09:54:42.129,2.1,0.0622587713034379,0.130943488387488,0,0.134633872550046,0.258547200532938,0.0995692832163297,0.249701249042508,0,0,0,0,0, ,-0.9833984375,-0.201171875,0.06787109375,0.91552734375,-1.46484375,0.3662109375,4.04,85
2025/07/05 09:54:42.229,2.2,0.0644127409714752,0.131984508451031,0,0.10470181081733,0.219676831728361,0.0764151387622105,0.192492387796062,0,0,0,0,0, ,-0.98828125,-0.19873046875,0.06396484375,-0.1220703125,-1.953125,0.48828125,4.04,85
2025/07/05 09:54:42.329,2.3,0.0668054119921485,0.132156937105889,0,0.0614816612032567,0.165761034114471,0.0482604704714462,0.116284309088566,0,0,0,0,0, ,-0.984375,-0.20849609375,0.06298828125,0.91552734375,-2.01416015625,0.6103515625,4.04,85
2025/07/05 09:54:42.429,2.4,0.0690524849655551,0.132196423369394,0,0.0965695239736397,0.222258809542255,0.0635979055822098,0.164131563456339,0,0,0,0,0, ,-0.98779296875,-0.20654296875,0.060546875,-0.30517578125,-1.15966796875,1.28173828125,4.04,85
2025/07/05 09:54:42.529,2.5,0.0714903976098283,0.13363220216285,0,0.17574125612702,0.337206398952896,0.120241146978982,0.313396376980526,0,0,0,0,0, ,-0.97900390625,-0.2021484375,0.05517578125,-0.3662109375,-1.46484375,1.46484375,4.04,85
2025/07/05 09:54:42.629,2.6,0.0739678474045861,0.135822173348899,0,0.184003444609351,0.342494606664773,0.130609216895226,0.310483472776092,0,0,0,0,0, ,-0.98291015625,-0.19580078125,0.056640625,-1.77001953125,-2.685546875,0,4.04,85
2025/07/05 09:54:42.729,2.7,0.0761995736952336,0.137490926939952,0,0.181247864531065,0.334564391004769,0.133204597138029,0.295944352541738,0,0,0,0,0, ,-0.98291015625,-0.2001953125,0.06103515625,-2.86865234375,-3.0517578125,-1.3427734375,4.04,85
2025/07/05 09:54:42.829,2.8,0.0783678439781738,0.138678269503504,0,0.167492697876584,0.32664673309453,0.130609216895226,0.275660349365921,0,0,0,0,0, ,-0.98291015625,-0.201171875,0.0625,-4.0283203125,-3.47900390625,-1.64794921875,4.04,85
2025/07/05 09:54:42.929,2.9,0.0806741734683858,0.138986431485101,0,0.145562838487093,0.300344726490558,0.117652485297812,0.229603605286036,0,0,0,0,0, ,-0.98095703125,-0.2080078125,0.0634765625,-3.5400390625,-2.44140625,-1.40380859375,4.04,85
2025/07/05 09:54:43.029,3.0,0.0828035657905297,0.138721601865837,0,0.118285084385878,0.268963870811989,0.0995692832163297,0.169790873540426,0,0,0,0,0, ,-0.982421875,-0.21142578125,0.06298828125,-1.0986328125,-2.38037109375,-1.89208984375,4.04,85
2025/07/05 09:54:43.129,3.1,0.0874295414538173,0.140980699820529,0,0.0803445234987747,0.224842121366961,0.0738490622750461,0.10788800161508,0,0,0,0,0, ,-0.978515625,-0.22265625,0.06298828125,0.48828125,-2.197265625,-0.6103515625,4.04,85
2025/07/05 09:54:43.229,3.2,0.092063209703523,0.14184764997791,0,0.129178334719667,0.308220810963185,0.0995692832163297,0.178291867243926,0,0,0,0,0, ,-0.98046875,-0.22119140625,0.0634765625,-0.30517578125,-2.86865234375,0.06103515625,4.04,85
2025/07/05 09:54:43.330,3.3,0.0962753472597906,0.14278601181632,0,0.200568892977307,0.409073485551531,0.146201744891928,0.295944352541738,0,0,0,0,0, ,-0.9833984375,-0.21240234375,0.0615234375,0.42724609375,-2.5634765625,-0.1220703125,4.04,85
2025/07/05 09:54:43.430,3.4,0.100202246105197,0.143463802988574,0,0.206102927770798,0.411755169673468,0.151410078618602,0.293041594883726,0,0,0,0,0, ,-0.9814453125,-0.21533203125,0.0625,0,-1.89208984375,-0.18310546875,4.04,85
2025/07/05 09:54:43.530,3.5,0.10402036368806,0.144122880757046,0,0.208872243779279,0.42249631220486,0.151410078618602,0.28434341943612,0,0,0,0,0, ,-0.9794921875,-0.2255859375,0.064453125,-0.1220703125,-2.44140625,-0.67138671875,4.04,85
2025/07/05 09:54:43.630,3.6,0.107821476815113,0.144604357818747,0,0.197804170802637,0.409073485551531,0.143599611122297,0.258339316135681,0,0,0,0,0, ,-0.9814453125,-0.2255859375,0.06689453125,0.244140625,-2.685546875,-0.6103515625,4.04,85
2025/07/05 09:54:43.730,3.7,0.112478280989233,0.144860561417772,0,0.172990224461749,0.379669498548414,0.128015183153257,0.212441117295155,0,0,0,0,0, ,-0.98095703125,-0.21923828125,0.0673828125,-0.244140625,-2.13623046875,-0.06103515625,4.04,85
2025/07/05 09:54:43.830,3.8,0.117642889171,0.145023589268319,0,0.140095369461708,0.337206398952896,0.102148597137596,0.155654590656432,0,0,0,0,0, ,-0.97802734375,-0.22802734375,0.06201171875,0.8544921875,-1.89208984375,-0.06103515625,4.02,85
2025/07/05 09:54:43.930,3.9,0.122932309916341,0.144091290590593,0,0.121006172847864,0.32401029753358,0.0866926345195442,0.124694739878164,0,0,0,0,0, ,-0.98291015625,-0.2275390625,0.06494140625,-0.1220703125,-1.953125,-0.1220703125,4.02,85
2025/07/05 09:54:44.030,4.0,0.128281142412828,0.142957840720676,0,0.200568892977307,0.44674858251222,0.138399402722716,0.255458301981931,0,0,0,0,0, ,-0.97607421875,-0.22509765625,0.060546875,0.48828125,-1.5869140625,0.06103515625,4.02,85
2025/07/05 09:54:44.130,4.1,0.13363472101525,0.142025637891021,0,0.236650092588367,0.501067421197741,0.169682090328094,0.316310979176431,0,0,0,0,0, ,-0.97705078125,-0.2294921875,0.06494140625,0.244140625,-2.01416015625,-0.48828125,4.02,85
2025/07/05 09:54:44.230,4.2,0.138986915650126,0.141444814649449,0,0.233865352931034,0.501067421197741,0.169682090328094,0.301754928356042,0,0,0,0,0, ,-0.97802734375,-0.23193359375,0.06396484375,0.18310546875,-2.5634765625,-0.67138671875,4.02,85
2025/07/05 09:54:44.330,4.3,0.14395439994161,0.140777185845766,0,0.225520427613443,0.509266384377644,0.169682090328094,0.287241130282506,0,0,0,0,0, ,-0.97802734375,-0.23193359375,0.06396484375,0.18310546875,-2.5634765625,-0.67138671875,4.02,85
2025/07/05 09:54:44.430,4.4,0.14919927313693,0.139823012569857,0,0.200568892977307,0.490156342289529,0.156623843351187,0.25257894692079,0,0,0,0,0, ,-0.97412109375,-0.22607421875,0.0625,0.244140625,-2.13623046875,0.06103515625,4.02,85
2025/07/05 09:54:44.530,4.5,0.154802894425754,0.138946997413964,0,0.164746199633675,0.46027306986419,0.135801325280267,0.201032099394591,0,0,0,0,0, ,-0.9765625,-0.23486328125,0.06689453125,-0.1220703125,-2.38037109375,0.06103515625,4.02,85
2025/07/05 09:54:44.630,4.6,0.160820081486926,0.137484000610658,0,0.118285084385878,0.414438292853227,0.107311220131614,0.133119341577225,0,0,0,0,0, ,-0.97705078125,-0.23193359375,0.06591796875,-0.48828125,-1.8310546875,-0.8544921875,4.02,85
2025/07/05 09:54:44.730,4.7,0.166874573454084,0.135447955319587,0,0.118285084385878,0.427875548792019,0.102148597137596,0.133119341577225,0,0,0,0,0, ,-0.98046875,-0.2451171875,0.06982421875,-1.8310546875,-0.30517578125,2.3193359375,4.02,85
2025/07/05 09:54:44.830,4.8,0.172693587020764,0.133260295210475,0,0.211643094460053,0.575346640350603,0.164454698398223,0.28434341943612,0,0,0,0,0, ,-0.96484375,-0.22509765625,0.0556640625,-1.40380859375,-2.197265625,0.8544921875,4.02,85
2025/07/05 09:54:44.930,4.9,0.178853691267258,0.130676573889415,0,0.231082163365437,0.61150813262104,0.185397137079917,0.325064993537751,0,0,0,0,0, ,-0.978515625,-0.22412109375,0.0595703125,0.42724609375,-2.25830078125,-0.18310546875,4.04,85
2025/07/05 09:54:45.030,5.0,0.184826097078739,0.128490795321962,0,0.222741877986232,0.625486335534086,0.182774530187639,0.307572264585846,0,0,0,0,0, ,-0.9814453125,-0.2421875,0.05908203125,-2.0751953125,-0.67138671875,1.28173828125,4.04,85
2025/07/05 09:54:45.130,5.1,0.190847770235594,0.126920029712428,0,0.206102927770798,0.647933062012576,0.185397137079917,0.295944352541738,0,0,0,0,0, ,-0.97900390625,-0.2294921875,0.05419921875,-4.5166015625,-0.54931640625,1.40380859375,4.04,85
2025/07/05 09:54:45.230,5.2,0.198491920168588,0.125215164665183,0,0.178493802260666,0.625486335534086,0.167067711222519,0.25257894692079,0,0,0,0,0, ,-0.98388671875,-0.2265625,0.05224609375,-1.40380859375,-1.46484375,0.79345703125,4.04,85
2025/07/05 09:54:45.330,5.3,0.207602246330633,0.123751474949627,0,0.145562838487093,0.589223973503993,0.140998830868342,0.198183907961553,0,0,0,0,0, ,-0.9697265625,-0.2236328125,0.046875,-1.40380859375,-0.48828125,1.03759765625,4.04,85
2025/07/05 09:54:45.431,5.4,0.217266584418174,0.121783946652774,0,0.112847346029912,0.550464090059971,0.107311220131614,0.127501363541807,0,0,0,0,0, ,-0.97705078125,-0.2265625,0.04833984375,1.52587890625,-2.8076171875,-0.54931640625,4.04,85
2025/07/05 09:54:45.531,5.5,0.226941807267542,0.118602738972843,0,0.0965695239736397,0.542197348151217,0.0918393152884236,0.119086214415738,0,0,0,0,0, ,-0.974609375,-0.23095703125,0.05078125,1.5869140625,-2.99072265625,-0.30517578125,4.04,85
2025/07/05 09:54:45.631,5.6,0.236565805515134,0.115804272240709,0,0.172990224461749,0.66201361180097,0.159232765886504,0.28434341943612,0,0,0,0,0, ,-0.9833984375,-0.2294921875,0.0537109375,0.6103515625,-2.38037109375,1.15966796875,4.04,85
2025/07/05 09:54:45.731,5.7,0.24666661062815,0.11372772871799,0,0.184003444609351,0.701651417893569,0.19064648131588,0.348484239750909,0,0,0,0,0, ,-0.9833984375,-0.2294921875,0.0537109375,1.0986328125,-0.91552734375,3.0517578125,4.04,85
2025/07/05 09:54:45.831,5.8,0.257094383313328,0.111877270270138,0,0.1620012092131,0.695969599184995,0.19064648131588,0.336760905129329,0,0,0,0,0, ,-0.98876953125,-0.2236328125,0.052734375,3.47900390625,1.40380859375,10.25390625,4.04,85
2025/07/05 09:54:45.931,5.9,0.267893136071381,0.110797530213939,0,0.148298816626767,0.693131109227698,0.188021120307547,0.327986407541688,0,0,0,0,0, ,-0.98681640625,-0.19580078125,0.04248046875,5.06591796875,0.79345703125,13.7939453125,4.04,85
2025/07/05 09:54:46.031,6.0,0.27912659416207,0.109765688197138,0,0.11013069292016,0.569806473661349,0.169682090328094,0.238206991278232,0,0,0,0,0, ,-0.99072265625,-0.16357421875,0.0400390625,4.5166015625,0.244140625,18.798828125,4.04,85
2025/07/05 09:54:46.131,6.1,0.289383060486981,0.109092542139172,0,0.0293099689194243,0.287245426555125,0.135801325280267,0.0605734271525122,0,0,0,0,0, ,-1.00146484375,-0.11962890625,0.0322265625,3.47900390625,1.46484375,13.85498046875,4.04,85
2025/07/05 09:54:46.231,6.2,0.29882965879367,0.108183968780324,0,-0.0738410033764358,0.00989119991313769,0.0789825328753571,-0.110965310400394,0,0,0,0,0, ,-1.00830078125,-0.10107421875,0.0302734375,5.615234375,3.72314453125,21.97265625,4.04,85
2025/07/05 09:54:46.331,6.3,0.308421000744957,0.104905701134959,0,-0.0528546140124582,-0.0148002079218439,0.0995692832163297,-0.0571434782666098,0,0,0,0,0, ,-1.01904296875,-0.05810546875,0.0126953125,5.67626953125,8.6669921875,30.8837890625,4.04,85
2025/07/05 09:54:46.431,6.4,0.318209774658675,0.100214995091227,0,0.050734746962676,0.102324507913047,0.164454698398223,0.121889690758033,0,0,0,0,0, ,-1.0048828125,0.0498046875,-0.02294921875,6.40869140625,9.70458984375,36.19384765625,4.04,85
2025/07/05 09:54:46.531,6.5,0.324515530140764,0.0958420598035594,0,0.0561053166793366,0.0847055621818789,0.10472924231772,0.10788800161508,0,0,0,0,0, ,-0.98583984375,0.09228515625,-0.0380859375,3.84521484375,6.89697265625,29.96826171875,4.04,85
2025/07/05 09:54:46.631,6.6,0.324019851959672,0.0901643234239974,0,0.042689693054053,0.00741656490816034,0.0329699389051883,0.0301949856338997,0,0,0,0,0, ,-0.982421875,0.13916015625,-0.05078125,-1.52587890625,4.2724609375,22.3388671875,4.04,85
2025/07/05 09:54:46.731,6.7,0.319482723972566,0.0851411957539369,0,0.0319830510068786,-0.143667052127273,-0.00757767246655128,-0.0435970058094366,0,0,0,0,0, ,-0.96435546875,0.1865234375,-0.06103515625,-5.18798828125,2.685546875,17.2119140625,4.04,85
2025/07/05 09:54:46.831,6.8,0.313176077030593,0.0799760763059743,0,0.00265745418187358,-0.292649459555622,-0.0528041108018709,-0.134997399030893,0,0,0,0,0, ,-0.94091796875,0.1611328125,-0.07470703125,-12.26806640625,0.48828125,14.09912109375,4.04,85
2025/07/05 09:54:46.931,6.9,0.305713151052545,0.0741006922973834,0,-0.0581094751640294,-0.419180249349255,-0.100103442162827,-0.23521172267877,0,0,0,0,0, ,-0.96728515625,0.28955078125,-0.044921875,-31.55517578125,-0.30517578125,10.498046875,4.04,85
2025/07/05 09:54:47.031,7.0,0.298091490136703,0.0671977291430883,0,-0.0999507228931296,-0.480142846044407,-0.129747797332485,-0.287160241150356,0,0,0,0,0, ,-0.94384765625,0.27197265625,-0.04833984375,-13.36669921875,-1.5869140625,-2.86865234375,4.04,85
2025/07/05 09:54:47.131,7.1,0.288365555541103,0.0601094014867843,0,0.00265745418187358,-0.334413042811938,-0.0901828041354222,-0.148298816626767,0,0,0,0,0, ,-0.95556640625,0.23095703125,-0.044921875,-20.3857421875,-5.9814453125,-13.12255859375,4.04,85
2025/07/05 09:54:47.231,7.2,0.273521424105402,0.054591433183188,0,0.0373335062263727,-0.292649459555622,-0.0702822806488297,-0.0814350236600192,0,0,0,0,0, ,-0.9794921875,0.24365234375,-0.00244140625,-27.9541015625,-7.38525390625,-11.71875,4.04,85
2025/07/05 09:54:47.331,7.3,0.255574012734482,0.0495764134511641,0,0.0319830510068786,-0.318213075167257,-0.0702822806488297,-0.0948795058812135,0,0,0,0,0, ,-0.98388671875,0.20947265625,0.0087890625,-20.5078125,-4.39453125,-12.14599609375,4.04,85
2025/07/05 09:54:47.431,7.4,0.23652508364283,0.0448635044052531,0,0.0587927663143097,-0.339031980715928,-0.0352646292839465,-0.0921934999474301,0,0,0,0,0, ,-0.98388671875,0.1484375,0.02197265625,-12.39013671875,-5.79833984375,-14.95361328125,4.04,85
2025/07/05 09:54:47.532,7.5,0.216104403499673,0.0393163585966012,0,0.0534193107455532,-0.348257075446311,-0.0302420272287622,-0.142982495099336,0,0,0,0,0, ,-1.01171875,0.10400390625,0.05224609375,-25.146484375,-6.65283203125,-20.263671875,4.04,85
2025/07/05 09:54:47.632,7.6,0.194967727193148,0.0335961550345789,0,0.0293099689194243,-0.366656359964143,-0.0553047359730203,-0.206408291790796,0,0,0,0,0, ,-1.0087890625,0.1064453125,0.05126953125,-21.91162109375,-0.67138671875,-16.357421875,4.04,85
2025/07/05 09:54:47.732,7.7,0.173818662416912,0.0280940372222316,37.5,0.0106383017270608,-0.375830674327987,-0.0876995659788453,-0.237822007220172,0,0,0,0,0, ,-0.99853515625,0.060546875,0.05322265625,-7.14111328125,-2.99072265625,-8.97216796875,4.04,85
2025/07/05 09:54:47.832,7.8,0.152187434045451,0.0220318580012772,56.25,0.0830450366216695,-0.19857330847385,-0.0352646292839465,-0.0381681237066065,0,0,0,0,0, ,-0.99267578125,0.04345703125,0.0576171875,-5.31005859375,-3.96728515625,-2.99072265625,4.04,85
2025/07/05 09:54:47.932,7.9,0.130157878098601,0.0165152219341549,62.6059322033898,0.17574125612702,-0.0320119286202334,0.0228021673778804,0.10788800161508,0,0,0,0,0, ,-1.0009765625,0.04150390625,0.05908203125,-2.25830078125,-3.41796875,-4.5166015625,4.04,85
2025/07/05 09:54:48.032,8.0,0.108305731350262,0.0109493652414218,65.869125577812,0.18676054416942,-0.0320119286202334,0.010121460795331,0.0661166648882316,0,0,0,0,0, ,-1.01171875,0.02587890625,0.06201171875,-1.52587890625,-2.74658203125,-4.57763671875,4.04,85
2025/07/05 09:54:48.132,8.1,0.0863780247648075,0.00527358147422397,67.8370116921961,0.184003444609351,-0.0320119286202334,-0.00252716706188361,0.0384617275426535,0,0,0,0,0, ,-1.001953125,-0.03271484375,0.06396484375,3.96728515625,-2.74658203125,-5.79833984375,4.04,85
2025/07/05 09:54:48.232,8.2,0.064101934922187,0.000769332742932368,69.2057539502704,0.17574125612702,-0.04671782135518,-0.0151438780851425,0.0109589083334178,0,0,0,0,0, ,-0.9921875,-0.01220703125,0.05517578125,3.41796875,-3.5400390625,-1.220703125,4.04,85
2025/07/05 09:54:48.332,8.3,0.0425274627326222,-0.00229789164148381,70.3096760453223,0.153775268352235,-0.0735667993095066,-0.0352646292839465,-0.0272926437789023,0,0,0,0,0, ,-1.02294921875,0.009765625,0.07470703125,1.708984375,-3.7841796875,0.91552734375,4.04,85
2025/07/05 09:54:48.432,8.4,0.0210548611800552,-0.00476641877517743,71.2140282749184,0.112847346029912,-0.126836067502111,-0.0677891367799242,-0.105609123572714,0,0,0,0,0, ,-1.00146484375,0.0439453125,0.07666015625,0.732421875,-3.41796875,2.50244140625,4.04,85
2025/07/05 09:54:48.532,8.5,-0.000657141768126109,-0.00710376601740069,71.9273695351339,0.10470181081733,-0.122016790092391,-0.082729386717209,-0.140322213086329,0,0,0,0,0, ,-1.00146484375,0.0439453125,0.07666015625,0.732421875,-3.41796875,2.50244140625,4.04,85
2025/07/05 09:54:48.632,8.6,-0.0223079621772354,-0.0102102950898574,72.514909110023,0.189519164887947,0.014844147247814,-0.0377740395878097,-0.0163934570642104,0,0,0,0,0, ,-0.9853515625,0.0361328125,0.0712890625,2.01416015625,-2.197265625,1.220703125,4.04,85
2025/07/05 09:54:48.732,8.7,-0.0440531202358115,-0.013351946552034,73.0100782014248,0.208872243779279,0.0396827473873622,-0.0352646292839465,-0.00547045998277884,0,0,0,0,0, ,-1.00390625,0.02294921875,0.07177734375,0.18310546875,-1.953125,-2.44140625,4.04,85
2025/07/05 09:54:48.832,8.8,-0.066107406941188,-0.0163816163694806,73.4232059626421,0.203335144735552,0.0371933274078851,-0.0427890850689252,-0.0354514705968549,0,0,0,0,0, ,-0.99853515625,0.00537109375,0.06201171875,1.953125,-3.90625,-3.0517578125,4.04,85
2025/07/05 09:54:48.932,8.9,-0.0889943371060389,-0.0197331657451315,73.780482166298,0.206102927770798,0.0396827473873622,-0.0452947227688156,-0.0544371182949899,0,0,0,0,0, ,-1.01123046875,0.00390625,0.0830078125,2.3193359375,-3.35693359375,-0.9765625,4.04,85
2025/07/05 09:54:49.032,9.0,-0.111465904477671,-0.0227723916538869,74.0950457402878,0.184003444609351,0.014844147247814,-0.0578041111440317,-0.102928876965786,0,0,0,0,0, ,-0.98828125,0.0009765625,0.07470703125,6.53076171875,-3.173828125,-3.5400390625,4.04,85
2025/07/05 09:54:49.132,9.1,-0.133054336865798,-0.0255438956896219,74.3736198853647,0.145562838487093,-0.0295567358748565,-0.082729386717209,-0.172152558836981,0,0,0,0,0, ,-1.00634765625,-0.01806640625,0.08740234375,10.55908203125,-10.25390625,-10.498046875,4.04,85
2025/07/05 09:54:49.232,9.2,-0.153939529603081,-0.0287176700868363,74.6338174908153,0.134633872550046,-0.0320119286202334,-0.09514558362523,-0.211657636026759,0,0,0,0,0, ,-1.0009765625,-0.048828125,0.1083984375,6.53076171875,-6.89697265625,-3.7841796875,4.04,85
2025/07/05 09:54:49.332,9.3,-0.174624976932629,-0.0312051049263956,74.8774900485473,0.222741877986232,0.127602620022277,-0.0427890850689252,-0.0787417836673519,0,0,0,0,0, ,-0.998046875,-0.02880859375,0.1083984375,2.99072265625,-1.5869140625,-1.52587890625,4.04,85
2025/07/05 09:54:49.432,9.4,-0.195393650930739,-0.0325635101243313,75.09502412631,0.256186818241846,0.175985986400744,-0.0302420272287622,-0.0544371182949899,0,0,0,0,0, ,-0.98974609375,-0.0234375,0.103515625,3.60107421875,-2.01416015625,-0.3662109375,4.04,85
2025/07/05 09:54:49.532,9.5,-0.21244994906954,-0.0339636759505984,75.2896598800976,0.250597102818434,0.165761034114471,-0.0377740395878097,-0.089506050312457,0,0,0,0,0, ,-0.990234375,-0.02392578125,0.09765625,5.0048828125,-5.92041015625,-3.90625,4.04,85
2025/07/05 09:54:49.632,9.6,-0.222755608196232,-0.0341668648262081,75.4648320585066,0.242224229091538,0.16065638852,-0.0402821910953799,-0.116315765619888,0,0,0,0,0, ,-1.0009765625,-0.04296875,0.111328125,5.43212890625,-2.13623046875,-5.4931640625,4.04,85
2025/07/05 09:54:49.733,9.7,-0.228675026003325,-0.0347048978363766,75.6233211723051,0.222741877986232,0.147917528315829,-0.0528041108018709,-0.15891453170897,0,0,0,0,0, ,-0.99755859375,-0.0595703125,0.1162109375,7.01904296875,-3.0517578125,-3.84521484375,4.04,85
2025/07/05 09:54:49.833,9.8,-0.23194331189604,-0.0348318261074991,75.7674021848492,0.192279308444373,0.125069050205972,-0.0677891367799242,-0.209033652799129,0,0,0,0,0, ,-0.99609375,-0.07373046875,0.123046875,5.92041015625,-1.3427734375,-2.50244140625,4.04,85
2025/07/05 09:54:49.933,9.9,-0.233581269413774,-0.0343762967594279,75.9062877035707,0.19504097652093,0.150462705222655,-0.0652947491375224,-0.206408291790796,0,0,0,0,0, ,-0.9912109375,-0.0625,0.11181640625,2.5634765625,-1.03759765625,-3.5400390625,4.04,85
2025/07/05 09:54:50.033,10.0,-0.235377143685757,-0.0338253658527857,76.0450819050404,0.267385031042505,0.292481029049735,-0.00757767246655128,-0.0679542931279919,0,0,0,0,0, ,-1.00244140625,-0.06982421875,0.10791015625,0.42724609375,-1.15966796875,-4.69970703125,4.04,85
2025/07/05 09:54:50.133,10.1,-0.235211557767795,-0.0326461905971591,76.1795852657399,0.281418158203992,0.32401029753358,0.012655030611636,-0.0354514705968549,0,0,0,0,0, ,-1.00244140625,-0.0859375,0.1103515625,2.99072265625,-1.3427734375,-2.74658203125,4.04,85
2025/07/05 09:54:50.233,10.2,-0.230135672641192,-0.0328461053411326,76.3106255229679,0.281418158203992,0.331923778360613,0.0202634519511671,-0.0381681237066065,0,0,0,0,0, ,-0.990234375,-0.09033203125,0.10205078125,1.46484375,-0.67138671875,-2.3193359375,4.04,85
2025/07/05 09:54:50.333,10.3,-0.22206520396486,-0.0334497076500217,76.4417541028092,0.275800180168574,0.339849803680337,0.0228021673778804,-0.049019999752649,0,0,0,0,0, ,-0.9912109375,-0.09814453125,0.1005859375,0.244140625,-2.50244140625,-2.5634765625,4.04,85
2025/07/05 09:54:50.433,10.4,-0.21153392906046,-0.0344315327758134,76.5688343134232,0.250597102818434,0.334564391004769,0.0177260248855475,-0.0787417836673519,0,0,0,0,0, ,-0.99609375,-0.1025390625,0.11474609375,1.220703125,-4.45556640625,-1.8310546875,4.04,85
2025/07/05 09:54:50.533,10.5,-0.197573476251606,-0.0358184962488435,76.687150371581,0.211643094460053,0.321375251398551,0.0025284450225258,-0.124330728477737,0,0,0,0,0, ,-0.994140625,-0.1015625,0.11572265625,1.40380859375,-2.38037109375,-1.28173828125,4.04,85
2025/07/05 09:54:50.633,10.6,-0.182506708552365,-0.0364701037731306,76.8039582778552,0.225520427613443,0.366361000072424,0.0151898848740366,-0.0975640696640907,0,0,0,0,0, ,-1.0029296875,-0.103515625,0.12060546875,5.55419921875,-2.0751953125,-3.84521484375,4.04,85
2025/07/05 09:54:50.733,10.7,-0.168086887404999,-0.0368671744706735,78.2334147862591,0.303953407283198,0.509266384377644,0.0841212793970487,0.0605734271525122,0,0,0,0,0, ,-1.0234375,-0.10595703125,0.130859375,12.87841796875,2.50244140625,-4.7607421875,4.04,85
2025/07/05 09:54:50.833,10.8,-0.153555470167618,-0.0368533986742032,78.4177911443643,0.332266053294444,0.597568898821585,0.122831149588304,0.127501363541807,0,0,0,0,0, ,-1.00439453125,-0.10498046875,0.1201171875,39.24560546875,13.0615234375,-1.3427734375,4.04,85
2025/07/05 09:54:50.933,10.9,-0.139222846216391,-0.0370684422731578,78.6003155408717,0.329427563337148,0.695969599184995,0.14880523358678,0.166960417803647,0,0,0,0,0, ,-0.98486328125,-0.10205078125,0.06201171875,43.02978515625,7.62939453125,7.38525390625,4.04,85
2025/07/05 09:54:51.033,11.0,-0.124443622511459,-0.0374048018241716,78.7849995610228,0.289856978646843,0.755953179729326,0.164454698398223,0.164131563456339,0,0,0,0,0, ,-1.0029296875,-0.14990234375,0.072265625,24.7802734375,6.65283203125,0.6103515625,4.04,85
2025/07/05 09:54:51.133,11.1,-0.107085561547122,-0.0370951164623294,78.9793213345802,0.231082163365437,0.738741459030938,0.156623843351187,0.110685204443556,0,0,0,0,0, ,-1.0087890625,-0.09375,0.0537109375,10.80322265625,5.55419921875,5.126953125,4.04,85
2025/07/05 09:54:51.233,11.2,-0.0864345251006333,-0.0372131326845302,79.1639077269184,0.17574125612702,0.710186270478871,0.143599611122297,0.0744430613594655,0,0,0,0,0, ,-0.9716796875,-0.02783203125,0.0224609375,6.9580078125,6.7138671875,8.85009765625,4.04,85
2025/07/05 09:54:51.333,11.3,-0.0644208643576338,-0.0392741639409267,79.3190360067568,0.156515745222975,0.695969599184995,0.135801325280267,0.0550363281087858,0,0,0,0,0, ,-0.99169921875,-0.02685546875,0.02392578125,5.126953125,1.52587890625,0.79345703125,4.04,85
2025/07/05 09:54:51.433,11.4,-0.0410481628812192,-0.0408461399347057,79.4634592909306,0.211643094460053,0.767460664499248,0.177533439639094,0.150011249283653,0,0,0,0,0, ,-1.0068359375,-0.0771484375,0.01806640625,6.2255859375,4.638671875,2.38037109375,4.04,85
2025/07/05 09:54:51.533,11.5,-0.017518838173402,-0.041834252731474,79.6145668971627,0.217189406648834,0.787662711883239,0.201161732143085,0.192492387796062,0,0,0,0,0, ,-1.02734375,-0.087890625,0.01416015625,17.4560546875,8.30078125,15.68603515625,4.04,85
2025/07/05 09:54:51.633,11.6,0.00665545023725596,-0.0427469130954288,79.7600523144893,0.211643094460053,0.819574627103163,0.224902214269695,0.241078079456745,0,0,0,0,0, ,-0.98876953125,-0.0224609375,-0.03564453125,9.09423828125,9.46044921875,5.18798828125,4.04,85
2025/07/05 09:54:51.733,11.7,0.0315900235686031,-0.0436735976042675,79.9022554949369,0.184003444609351,0.790555393436583,0.219616801594128,0.203881914191315,0,0,0,0,0, ,-0.99365234375,0.0205078125,-0.06201171875,-2.99072265625,14.09912109375,9.46044921875,4.04,85
2025/07/05 09:54:51.834,11.8,0.0565096403655531,-0.0449487753845714,80.0499475146827,0.121006172847864,0.695969599184995,0.188021120307547,0.121889690758033,0,0,0,0,0, ,-0.9931640625,0.04443359375,-0.08642578125,13.916015625,8.85009765625,6.4697265625,4.04,85
2025/07/05 09:54:51.934,11.9,0.0820735727940547,-0.0466061048183093,80.1943000252905,0.050734746962676,0.600353638478918,0.154016281401348,0.0550363281087858,0,0,0,0,0, ,-0.970703125,0.044921875,-0.1220703125,8.7890625,9.1552734375,2.0751953125,4.04,85
2025/07/05 09:54:52.034,12.0,0.106646201116797,-0.0485961281194704,80.339223010818,-0.0212089392257777,0.495608905453107,0.117652485297812,-0.0218460202277884,0,0,0,0,0, ,-0.9716796875,0.0419921875,-0.134765625,9.3994140625,2.9296875,-5.9814453125,4.02,85
2025/07/05 09:54:52.134,12.1,0.130785470411419,-0.0508631239497817,80.4845702557812,0.0400108824218033,0.555982854334924,0.156623843351187,0.0688905900220673,0,0,0,0,0, ,-0.990234375,0.00537109375,-0.14501953125,8.60595703125,0.9765625,-11.474609375,4.02,85
2025/07/05 09:54:52.234,12.2,0.155233946776215,-0.0516135145772746,80.6245273748166,0.0722517244423124,0.594785709255987,0.193273221552544,0.144374270191109,0,0,0,0,0, ,-0.99462890625,-0.06005859375,-0.13818359375,8.056640625,-2.01416015625,-12.5732421875,4.02,85
2025/07/05 09:54:52.334,12.3,0.179348941032472,-0.0517524645050253,80.7591072213515,0.0480516237829174,0.578119027405549,0.201161732143085,0.152832123787526,0,0,0,0,0, ,-0.96826171875,-0.04541015625,-0.1416015625,0.30517578125,-1.708984375,-4.7607421875,4.02,85
2025/07/05 09:54:52.434,12.4,0.202898436220767,-0.0526213555982318,80.8931253186858,0.0373335062263727,0.578119027405549,0.209062708122939,0.166960417803647,0,0,0,0,0, ,-0.9921875,-0.05615234375,-0.12109375,-3.35693359375,-3.90625,-14.16015625,4.02,85
2025/07/05 09:54:52.534,12.5,0.226343108947885,-0.0538327181037561,81.0300382536357,-0.00265604251955942,0.53394425148978,0.193273221552544,0.116284309088566,0,0,0,0,0, ,-0.998046875,-0.1025390625,-0.12158203125,-0.79345703125,-1.40380859375,-20.81298828125,4.02,85
2025/07/05 09:54:52.634,12.6,0.249739529370913,-0.054840229406615,81.1669511885856,-0.042328294492,0.484709718738415,0.169682090328094,0.0800017055400879,0,0,0,0,0, ,-0.958984375,-0.16064453125,-0.1240234375,0.3662109375,0.30517578125,-15.31982421875,4.02,85
2025/07/05 09:54:52.734,12.7,0.271711478228242,-0.0557913306827231,81.3049247718627,-0.0712225168408152,0.454858884250708,0.159232765886504,0.063344277833286,0,0,0,0,0, ,-0.958984375,-0.16064453125,-0.1240234375,0.3662109375,0.30517578125,-15.31982421875,4.02,85
2025/07/05 09:54:52.834,12.8,0.292418643837883,-0.0565500554866731,81.4428983551398,-0.015915132563451,0.544951410421616,0.198530845512801,0.169790873540426,0,0,0,0,0, ,-0.9951171875,-0.20849609375,-0.12744140625,3.7841796875,3.0517578125,-6.34765625,4.02,85
2025/07/05 09:54:52.934,12.9,0.312560635624863,-0.0559044852940474,81.5794210509574,0.0695570329594148,0.676133925973656,0.272724044628939,0.333834361337559,0,0,0,0,0, ,-1.0009765625,-0.23583984375,-0.14892578125,-2.99072265625,10.986328125,6.16455078125,4.02,85
2025/07/05 09:54:53.034,13.0,0.332624985883634,-0.0544871614878582,81.7118821745702,0.0776454681428183,0.698809701462717,0.29412589614089,0.357294814586617,0,0,0,0,0, ,-0.939453125,-0.11474609375,-0.232421875,-8.056640625,12.39013671875,8.23974609375,4.02,85
2025/07/05 09:54:53.134,13.1,0.35303665151925,-0.0537729864261361,81.8396191591895,0.0587927663143097,0.653560524537394,0.283413519412282,0.319227281344551,0,0,0,0,0, ,-0.94677734375,-0.13134765625,-0.25537109375,-9.765625,-1.0986328125,-0.30517578125,4.02,85
2025/07/05 09:54:53.234,13.2,0.374058991014436,-0.0534943455198916,81.9622716915965,0.0239680881490298,0.586445423876783,0.270055242897313,0.275660349365921,0,0,0,0,0, ,-0.978515625,-0.1171875,-0.21826171875,-8.7890625,-4.8828125,3.23486328125,4.02,85
2025/07/05 09:54:53.334,13.3,0.395172245893482,-0.0529260691505132,82.0761087165031,-0.0132661259184457,0.53944480201757,0.251413410661783,0.235337550783126,0,0,0,0,0, ,-0.99267578125,-0.125,-0.1572265625,-12.63427734375,-3.90625,7.2021484375,4.02,85
2025/07/05 09:54:53.434,13.4,0.41422675461598,-0.0519321533732258,82.1849823140324,-0.0528546140124582,0.481988630276429,0.216976188949972,0.169790873540426,0,0,0,0,0, ,-0.9453125,-0.0810546875,-0.22705078125,-8.4228515625,7.080078125,5.92041015625,4.02,85
2025/07/05 09:54:53.534,13.5,0.430769129989026,-0.0498197009306422,82.297935878922,-0.042328294492,0.479269021873511,0.209062708122939,0.164131563456339,0,0,0,0,0, ,-0.92041015625,-0.07763671875,-0.2548828125,-9.70458984375,-5.43212890625,0.732421875,4.02,85
2025/07/05 09:54:53.634,13.6,0.446118534722788,-0.0465363419232168,82.4097418082579,0.0373335062263727,0.555982854334924,0.254072278007341,0.275660349365921,0,0,0,0,0, ,-0.9755859375,-0.08251953125,-0.22021484375,-13.36669921875,-7.8125,-0.42724609375,4.02,85
2025/07/05 09:54:53.734,13.7,0.461330404260474,-0.0431296494548971,82.5171705457556,0.042689693054053,0.555982854334924,0.267387864906341,0.295944352541738,0,0,0,0,0, ,-0.97216796875,-0.09423828125,-0.18798828125,-9.58251953125,-9.8876953125,-7.568359375,4.02,85
2025/07/05 09:54:53.834,13.8,0.476652840815179,-0.0400699611313897,82.6196794335521,0.0319830510068786,0.544951410421616,0.264721909137773,0.290140521448411,0,0,0,0,0, ,-1.01123046875,-0.11328125,-0.13916015625,-8.48388671875,-10.986328125,-2.197265625,4.02,85
2025/07/05 09:54:53.934,13.9,0.492072856958445,-0.0373777169174771,82.7134470626073,0.0293099689194243,0.547706990499901,0.264721909137773,0.293041594883726,0,0,0,0,0, ,-1.0068359375,-0.08837890625,-0.1533203125,-0.30517578125,-2.44140625,2.62451171875,4.02,85
2025/07/05 09:54:54.035,14.0,0.50700628790025,-0.0348908548304898,82.7936914316553,0.005316321527431,0.517478814242786,0.243445281604128,0.246825206440636,0,0,0,0,0, ,-0.982421875,-0.04443359375,-0.1865234375,4.39453125,2.50244140625,6.40869140625,4.02,85
2025/07/05 09:54:54.135,14.1,0.519284667178337,-0.0331988879893822,82.8626363656751,-0.0502251109671086,0.438651414871363,0.20642766198791,0.158478651689144,0,0,0,0,0, ,-0.96533203125,-0.0341796875,-0.19970703125,2.8076171875,0.1220703125,2.197265625,4.04,85
2025/07/05 09:54:54.235,14.2,0.527358590852323,-0.0322115545655284,82.93498611904,-0.107757125611567,0.350437419972105,0.164454698398223,0.0716660549423453,0,0,0,0,0, ,-0.93896484375,-0.080078125,-0.201171875,4.5166015625,-4.08935546875,-15.0146484375,4.04,85
2025/07/05 09:54:54.335,14.3,0.530794351408645,-0.0308813779691358,83.0123689468945,-0.0238537422102141,0.435955270332863,0.195901342467451,0.169790873540426,0,0,0,0,0, ,-0.98193359375,-0.1494140625,-0.1904296875,4.5166015625,-6.16455078125,-7.99560546875,4.04,85
2025/07/05 09:54:54.435,14.4,0.531784179737141,-0.0286284995790647,83.080080594865,0.0239680881490298,0.506531902534539,0.238140241397707,0.281447386962747,0,0,0,0,0, ,-0.97265625,-0.13671875,-0.1767578125,6.9580078125,-8.23974609375,-7.50732421875,4.04,85
2025/07/05 09:54:54.535,14.5,0.532359569691898,-0.0266510260416097,83.142888416117,0.0159659526578633,0.501067421197741,0.243445281604128,0.275660349365921,0,0,0,0,0, ,-0.97607421875,-0.14697265625,-0.1494140625,10.25390625,-13.00048828125,-7.75146484375,4.04,85
2025/07/05 09:54:54.635,14.6,0.532120584526089,-0.0253601995006343,83.2009288842036,0.005316321527431,0.487432288871294,0.232840823916459,0.255458301981931,0,0,0,0,0, ,-0.97705078125,-0.20263671875,-0.12255859375,10.8642578125,-13.73291015625,-7.50732421875,4.04,85
2025/07/05 09:54:54.735,14.7,0.530654000015469,-0.024722896632004,83.2619845359447,-0.015915132563451,0.46027306986419,0.222258809542255,0.22673909651362,0,0,0,0,0, ,-0.9892578125,-0.19482421875,-0.08251953125,3.90625,-11.71875,-0.91552734375,4.04,85
2025/07/05 09:54:54.835,14.8,0.528768928680991,-0.0239510633854561,83.3223896821909,-0.042328294492,0.438651414871363,0.203794003815091,0.189649055376251,0,0,0,0,0, ,-0.98876953125,-0.16748046875,-0.07470703125,3.84521484375,-8.9111328125,1.0986328125,4.04,85
2025/07/05 09:54:54.935,14.9,0.526096349677964,-0.0229879154128672,83.382794828437,-0.0816882452573902,0.393013514809975,0.172297837144484,0.124694739878164,0,0,0,0,0, ,-0.9833984375,-0.20166015625,-0.07373046875,3.47900390625,-7.14111328125,0,4.04,85
2025/07/05 09:54:55.035,15.0,0.523668046972489,-0.0221412378978277,83.4402895195763,-0.0686026582922752,0.406393238944604,0.164454698398223,0.127501363541807,0,0,0,0,0, ,-0.99267578125,-0.1826171875,-0.0341796875,-2.9296875,-9.09423828125,2.99072265625,4.04,85
2025/07/05 09:54:55.135,15.1,0.521414621825744,-0.019873209417648,83.50017654465,0.0293099689194243,0.520219291113525,0.214336970136784,0.258339316135681,0,0,0,0,0, ,-0.998046875,-0.15673828125,-0.02197265625,-2.8076171875,-5.126953125,2.8076171875,4.04,85
2025/07/05 09:54:55.235,15.2,0.518812736650284,-0.0173303339407941,83.5566829071138,0.0373335062263727,0.525704755103651,0.211699143683889,0.25257894692079,0,0,0,0,0, ,-1.02294921875,-0.171875,-0.01025390625,4.94384765625,1.64794921875,3.96728515625,4.04,85
2025/07/05 09:54:55.335,15.3,0.516548604908784,-0.0148983104146809,83.6105842287553,0.0293099689194243,0.520219291113525,0.201161732143085,0.232469756081339,0,0,0,0,0, ,-0.9658203125,-0.171875,-0.05908203125,11.90185546875,5.31005859375,2.38037109375,4.04,85
2025/07/05 09:54:55.435,15.4,0.514799680901348,-0.0125492393344647,83.6644855503967,0.0186319084264319,0.506531902534539,0.188021120307547,0.206733354203294,0,0,0,0,0, ,-0.99365234375,-0.1923828125,-0.0556640625,-2.01416015625,-0.8544921875,2.5634765625,4.04,85
2025/07/05 09:54:55.535,15.5,0.51286944429894,-0.0100692527192199,83.7154920344226,-0.015915132563451,0.452153988363537,0.164454698398223,0.147191965349078,0,0,0,0,0, ,-0.99755859375,-0.14013671875,-0.068359375,-0.6103515625,0.3662109375,2.38037109375,4.04,85
2025/07/05 09:54:55.635,15.6,0.510804140544745,-0.0075639210668465,83.771531592938,-0.0581094751640294,0.398361108822924,0.138399402722716,0.0911375674382713,0,0,0,0,0, ,-0.97705078125,-0.15966796875,-0.12744140625,12.63427734375,3.35693359375,6.40869140625,4.04,85
2025/07/05 09:54:55.735,15.7,0.509008996164712,-0.00526493341217507,83.8265105031262,-0.102554211587981,0.345140809386234,0.112479179171018,0.0412203482611799,0,0,0,0,0, ,-0.95068359375,-0.1376953125,-0.08251953125,-0.9765625,-9.8876953125,11.04736328125,4.04,85
2025/07/05 09:54:55.835,15.8,0.506653629418765,-0.00352143190217234,83.8764563388249,-0.0370568127960209,0.419808862569887,0.138399402722716,0.110685204443556,0,0,0,0,0, ,-0.98388671875,-0.06005859375,-0.0380859375,-10.7421875,-15.31982421875,0.48828125,4.04,85
2025/07/05 09:54:55.935,15.9,0.503861150563477,-0.00223326900291783,83.9206850001986,0.005316321527431,0.435955270332863,0.143599611122297,0.133119341577225,0,0,0,0,0, ,-1.02099609375,-0.0927734375,0.03076171875,-1.15966796875,-15.869140625,-6.28662109375,4.04,85
2025/07/05 09:54:56.035,16.0,0.501226993507479,-0.00111902449470961,83.959789252997,-0.0185627365043168,0.390341861032547,0.120241146978982,0.0911375674382713,0,0,0,0,0, ,-1.02685546875,-0.1162109375,0.02734375,-1.77001953125,-5.55419921875,3.11279296875,4.04,85
2025/07/05 09:54:56.136,16.1,0.498172684727943,-0.000423931690701599,83.9979403986662,-0.015915132563451,0.401037052116923,0.112479179171018,0.0827833467386698,0,0,0,0,0, ,-0.97021484375,-0.12451171875,0.005859375,-7.6904296875,-8.23974609375,-5.18798828125,4.04,85
2025/07/05 09:54:56.236,16.2,0.494179140116591,-0.000448979768062507,84.0294176783298,-0.0396932483569707,0.371680149430988,0.0944146436613482,0.0357046279825841,0,0,0,0,0, ,-0.9951171875,-0.1015625,0.00390625,-4.0283203125,-7.38525390625,-1.5869140625,4.04,85
2025/07/05 09:54:56.336,16.3,0.490066795417299,-0.000799275107462272,84.055861883504,-0.0816882452573902,0.316109321553726,0.0687208567737105,-0.0163934570642104,0,0,0,0,0, ,-1.005859375,-0.15380859375,0.021484375,9.27734375,-2.74658203125,-3.60107421875,4.04,85
2025/07/05 09:54:56.436,16.4,0.486152372919487,-0.000724912385543212,84.0772730141887,-0.123333461964209,0.271571432761828,0.0431584292884448,-0.0652537800050972,0,0,0,0,0, ,-0.98583984375,-0.18212890625,0.01220703125,6.16455078125,-3.72314453125,-5.4931640625,4.04,85
2025/07/05 09:54:56.536,16.5,0.481923160637211,-0.00135313718644294,84.0946041775131,-0.0581094751640294,0.358392871014769,0.0687208567737105,0.0109589083334178,0,0,0,0,0, ,-0.9931640625,-0.1669921875,0.03369140625,-5.0048828125,-6.28662109375,-3.90625,4.04,85
2025/07/05 09:54:56.636,16.6,0.47773215678872,-0.00291242016756666,84.1067033910642,0.00797660354043783,0.433260578849965,0.0995692832163297,0.0967148127744917,0,0,0,0,0, ,-1.00341796875,-0.1611328125,0.0576171875,-0.9765625,-5.79833984375,-2.50244140625,4.04,85
2025/07/05 09:54:56.736,16.7,0.474337729257977,-0.00397641225040819,84.1117364655537,0,0.417122856636104,0.0944146436613482,0.0772216109866761,0,0,0,0,0, ,-1,-0.1728515625,0.0625,-0.91552734375,-3.7841796875,1.220703125,4.04,85
2025/07/05 09:54:56.836,16.8,0.470724523104321,-0.00534232050495739,84.1167695400432,0,0.425185207093807,0.0918393152884236,0.063344277833286,0,0,0,0,0, ,-1,-0.1728515625,0.0625,-0.91552734375,-3.7841796875,1.220703125,4.04,85
2025/07/05 09:54:56.936,16.9,0.467115522392799,-0.00730976026152558,84.1218026145327,-0.0106157150822028,0.417122856636104,0.0815512459683267,0.0412203482611799,0,0,0,0,0, ,-0.99560546875,-0.15673828125,0.06298828125,-1.0986328125,-3.96728515625,-1.52587890625,4.04,85
2025/07/05 09:54:57.036,17.0,0.463686689937311,-0.0094596285381875,84.1218026145327,-0.0396932483569707,0.377004963486425,0.0610383969901034,-0.0109349413195767,0,0,0,0,0, ,-0.98876953125,-0.16015625,0.0595703125,-0.732421875,-2.38037109375,-0.54931640625,4.04,85
2025/07/05 09:54:57.136,17.1,0.459902686718455,-0.0114697690975787,84.1218026145327,-0.0869129060520035,0.32664673309453,0.0329699389051883,-0.0760470921844543,0,0,0,0,0, ,-0.9892578125,-0.1650390625,0.05712890625,0.54931640625,-1.953125,-0.91552734375,4.04,85
2025/07/05 09:54:57.236,17.2,0.456268781177536,-0.0135029410531939,84.1147364754711,-0.0317797675299376,0.398361108822924,0.0559233071061516,-0.00820344716505872,0,0,0,0,0,rest_start,-0.9912109375,-0.17529296875,0.05126953125,1.03759765625,-1.0986328125,-0.3662109375,4.04,85
2025/07/05 09:54:57.336,17.3,0.453600024225356,-0.014407731979434,84.10263726192,0.0453699396609806,0.492881880610217,0.0944146436613482,0.102298286191667,0,0,0,0,0,,-0.9912109375,-0.166015625,0.048828125,1.64794921875,-1.03759765625,-1.03759765625,4.04,85
2025/07/05 09:54:57.436,17.4,0.451102276246248,-0.0162364981122174,84.0905380483689,0.0480516237829174,0.484709718738415,0.0944146436613482,0.0939254124647713,0,0,0,0,0,,-0.990234375,-0.18017578125,0.0478515625,2.0751953125,-1.220703125,-0.06103515625,4.04,85
2025/07/05 09:54:57.536,17.5,0.448739466042239,-0.0180751885606788,84.0736714816522,0.042689693054053,0.484709718738415,0.0918393152884236,0.0744430613594655,0,0,0,0,0,,-0.98583984375,-0.1748046875,0.0478515625,1.0986328125,-1.3427734375,0.79345703125,4.04,85
2025/07/05 09:54:57.636,17.6,0.446339316278621,-0.0199986433157461,84.0636053326732,0.0266383151419962,0.468405356707881,0.0841212793970487,0.0467421598941637,0,0,0,0,0,,-0.9892578125,-0.1767578125,0.04833984375,-0.18310546875,-2.5634765625,-0.6103515625,4.04,85
2025/07/05 09:54:57.736,17.7,0.444436805903658,-0.0218155176543866,84.0485061092047,-0.00796389856525925,0.430567338857298,0.0661587250622562,0,0,0,0,0,0,,-0.98828125,-0.17578125,0.052734375,-0.06103515625,-2.5634765625,-0.18310546875,4.04,85
2025/07/05 09:54:57.836,17.8,0.442902899893147,-0.0238980891921358,84.0263407466746,-0.0554827349273652,0.374341847617611,0.0355151158120144,-0.0652537800050972,0,0,0,0,0,,-0.9833984375,-0.1796875,0.05224609375,0.732421875,-1.64794921875,-0.67138671875,4.04,85
2025/07/05 09:54:57.936,17.9,0.441960531251265,-0.0259497933517545,83.9971092450828,-0.0264971469376549,0.417122856636104,0.0457087991093585,-0.0272926437789023,0,0,0,0,0,,-0.9892578125,-0.18798828125,0.0517578125,0.67138671875,-2.13623046875,-0.91552734375,4.04,85
2025/07/05 09:54:58.036,18.0,0.440907421460324,-0.0268290618130681,83.9663318706121,0.0614816612032567,0.528449745524226,0.0892653126959302,0.0967148127744917,0,0,0,0,0,,-0.99169921875,-0.17919921875,0.05322265625,0.30517578125,-1.46484375,0.18310546875,4.04,85
2025/07/05 09:54:58.136,18.1,0.439992316589341,-0.0276700376260239,83.9297617122951,0.0695570329594148,0.528449745524226,0.0944146436613482,0.102298286191667,0,0,0,0,0,,-0.98779296875,-0.18212890625,0.05078125,0.8544921875,-1.708984375,0.1220703125,4.04,85
2025/07/05 09:54:58.236,18.2,0.438709910505846,-0.0289595007611246,83.8858816124575,0.0614816612032567,0.517478814242786,0.0892653126959302,0.0800017055400879,0,0,0,0,0,,-0.984375,-0.18310546875,0.04541015625,1.15966796875,-1.708984375,-0.3662109375,4.02,85
2025/07/05 09:54:58.337,18.3,0.437278949987147,-0.0305825456404989,83.8493114541404,0.0453699396609806,0.498337418440597,0.0815512459683267,0.0605734271525122,0,0,0,0,0,,-0.98828125,-0.189453125,0.0478515625,0.1220703125,-2.44140625,-0.1220703125,4.02,85
2025/07/05 09:54:58.437,18.4,0.435888443843255,-0.0322837563640769,83.8077082213339,0.0159659526578633,0.46027306986419,0.0661587250622562,0.0164473830069083,0,0,0,0,0,,-0.986328125,-0.1845703125,0.0537109375,-0.18310546875,-2.86865234375,0.3662109375,4.02,85
2025/07/05 09:54:58.537,18.5,0.4346846103266,-0.0341677087455477,83.7638281214963,-0.0291391548857818,0.409073485551531,0.0406093596816186,-0.0435970058094366,0,0,0,0,0,,-0.98388671875,-0.18896484375,0.0546875,0.3662109375,-2.44140625,0.18310546875,4.02,85
2025/07/05 09:54:58.637,18.6,0.433660960847838,-0.0362188691496564,83.7078488081077,-0.0264971469376549,0.417122856636104,0.0355151158120144,-0.0381681237066065,0,0,0,0,0,,-0.98681640625,-0.18798828125,0.056640625,0.244140625,-2.25830078125,0.54931640625,4.02,85
2025/07/05 09:54:58.737,18.7,0.432798056942764,-0.0369201210986288,83.65414636175,0.0587927663143097,0.528449745524226,0.0764151387622105,0.0855665363042677,0,0,0,0,0,,-0.98876953125,-0.18212890625,0.05517578125,0.18310546875,-1.708984375,0.3662109375,4.02,85
2025/07/05 09:54:58.837,18.8,0.432576702449684,-0.0361756551883974,83.6125431289434,0.0722517244423124,0.53394425148978,0.0841212793970487,0.105092362780439,0,0,0,0,0,,-0.98681640625,-0.18505859375,0.05419921875,1.03759765625,-1.89208984375,-0.18310546875,4.02,85
2025/07/05 09:54:58.937,18.9,0.432797305042764,-0.0352853758980913,83.5724857690158,0.0614816612032567,0.51473983859199,0.0764151387622105,0.0827833467386698,0,0,0,0,0,,-0.98828125,-0.1845703125,0.0517578125,0.8544921875,-1.64794921875,-0.18310546875,4.02,85
2025/07/05 09:54:59.037,19.0,0.432968218375432,-0.0349348576397894,83.5374614835776,0.0480516237829174,0.501067421197741,0.0712843020621055,0.0661166648882316,0,0,0,0,0,,-0.9853515625,-0.1923828125,0.05224609375,0.30517578125,-2.25830078125,-0.3662109375,4.02,85
2025/07/05 09:54:59.137,19.1,0.433274699678179,-0.0346484389891117,83.5072264701701,0.0186319084264319,0.465693124514717,0.0559233071061516,0.0246914078349825,0,0,0,0,0,,-0.98779296875,-0.19482421875,0.0537109375,0.3662109375,-2.74658203125,0,4.02,85
2025/07/05 09:54:59.237,19.2,0.434019781530067,-0.0342684749653327,83.482784240609,-0.0212089392257777,0.417122856636104,0.0329699389051883,-0.0272926437789023,0,0,0,0,0,,-0.98291015625,-0.1884765625,0.0537109375,0.48828125,-1.953125,0.244140625,4.04,85
2025/07/05 09:54:59.337,19.3,0.434625625247641,-0.0343447720736887,83.4633750855374,-0.042328294492,0.393013514809975,0.0177260248855475,-0.0571434782666098,0,0,0,0,0,,-0.98681640625,-0.193359375,0.0576171875,-0.1220703125,-2.44140625,0.244140625,4.04,85
2025/07/05 09:54:59.437,19.4,0.43533495070765,-0.0338113737285511,83.4489990049553,0.0346575629323729,0.495608905453107,0.053367723137665,0.0578041111440317,0,0,0,0,0,,-0.99658203125,-0.189453125,0.05810546875,0.06103515625,-2.3193359375,0.6103515625,4.04,85
2025/07/05 09:54:59.537,19.5,0.436237324140168,-0.032140852470308,83.4368997914042,0.0641720029014681,0.525704755103651,0.0687208567737105,0.105092362780439,0,0,0,0,0,,-0.98681640625,-0.189453125,0.0576171875,0.732421875,-2.0751953125,0.54931640625,4.04,85
2025/07/05 09:54:59.637,19.6,0.437315162667726,-0.030397085526,83.4248005778531,0.0561053166793366,0.506531902534539,0.0635979055822098,0.0855665363042677,0,0,0,0,0,,-0.984375,-0.1845703125,0.0537109375,0.67138671875,-1.77001953125,-0.1220703125,4.04,85
2025/07/05 09:54:59.737,19.7,0.438252767680345,-0.0296615156026325,83.4197675033636,0.0453699396609806,0.495608905453107,0.0584801979445331,0.0661166648882316,0,0,0,0,0,,-0.986328125,-0.19189453125,0.0576171875,0.18310546875,-2.25830078125,0,4.04,85
2025/07/05 09:54:59.837,19.8,0.439674993115272,-0.0286985044445606,83.4147344288741,0.0212992864174031,0.462982362764668,0.0431584292884448,0.0329490479042986,0,0,0,0,0,,-0.98681640625,-0.1953125,0.05810546875,0.48828125,-2.44140625,0.42724609375,4.04,85
2025/07/05 09:54:59.937,19.9,0.440999799755285,-0.0276459800835636,83.4097013543846,-0.0106157150822028,0.42249631220486,0.0253421724746659,-0.0136649440767203,0,0,0,0,0,,-0.9833984375,-0.1865234375,0.05810546875,0.54931640625,-1.64794921875,-0.6103515625,4.04,85
2025/07/05 09:55:00.037,20.0,0.441918031353815,-0.0266863152781277,83.4097013543846,-0.0475942243368248,0.377004963486425,0.00505816929884872,-0.0652537800050972,0,0,0,0,0,,-0.9873046875,-0.19970703125,0.06201171875,0.30517578125,-2.25830078125,0.3662109375,4.04,85
2025/07/05 09:55:00.137,20.1,0.442926260477585,-0.0254050381257342,83.4097013543846,0.00797660354043783,0.454858884250708,0.0304260569243442,0.0164473830069083,0,0,0,0,0,,-0.99169921875,-0.193359375,0.06103515625,0.48828125,-2.3193359375,0.30517578125,4.04,85
2025/07/05 09:55:00.237,20.2,0.443856182655447,-0.0232564838090461,83.4117344189567,0.0641720029014681,0.525704755103651,0.0635979055822098,0.105092362780439,0,0,0,0,0,,-0.98779296875,-0.18896484375,0.05859375,0.8544921875,-1.89208984375,0.42724609375,4.02,85
2025/07/05 09:55:00.337,20.3,0.444744696992809,-0.0214203887907544,83.4137674835288,0.0614816612032567,0.51473983859199,0.0635979055822098,0.0911375674382713,0,0,0,0,0,,-0.986328125,-0.1923828125,0.0546875,0.67138671875,-1.708984375,0.1220703125,4.02,85
2025/07/05 09:55:00.438,20.4,0.445674765714357,-0.0198726187563567,83.4158005481009,0.0561053166793366,0.512002362517317,0.0635979055822098,0.0800017055400879,0,0,0,0,0,,-0.98486328125,-0.1953125,0.0576171875,0.3662109375,-2.38037109375,-0.18310546875,4.02,85
2025/07/05 09:55:00.538,20.5,0.446642705079856,-0.0190805239322488,83.4178336126731,0.0400108824218033,0.490156342289529,0.0610383969901034,0.0550363281087858,0,0,0,0,0,,-0.98974609375,-0.19775390625,0.0595703125,0.42724609375,-2.50244140625,0,4.02,85
2025/07/05 09:55:00.638,20.6,0.447468046287941,-0.0182952095229966,83.4178336126731,0.0133014175958741,0.46027306986419,0.0482604704714462,0.0164473830069083,0,0,0,0,0,,-0.994140625,-0.19287109375,0.0595703125,-0.3662109375,-2.44140625,-0.1220703125,4.02,85
2025/07/05 09:55:00.738,20.7,0.447883684356261,-0.0177004170503075,83.4155567456421,-0.0264971469376549,0.417122856636104,0.027883468552496,-0.0327333406438068,0,0,0,0,0,,-0.9873046875,-0.20263671875,0.06201171875,0.91552734375,-2.62451171875,-0.54931640625,4.02,85
2025/07/05 09:55:00.838,20.8,0.448343419753557,-0.0166887860271837,83.4153129431832,-0.0291391548857818,0.417122856636104,0.0253421724746659,-0.0408833015770185,0,0,0,0,0,,-0.98046875,-0.197265625,0.06298828125,0.30517578125,-1.953125,-0.1220703125,4.02,85
2025/07/05 09:55:00.938,20.9,0.448592850939219,-0.0150623624793243,83.424412146817,0.0587927663143097,0.5366937703523,0.0738490622750461,0.0855665363042677,0,0,0,0,0,,-0.98388671875,-0.19775390625,0.06103515625,0.67138671875,-1.77001953125,0,4.02,85
2025/07/05 09:55:01.038,21.0,0.449021921384507,-0.0131633695519626,83.4335113504507,0.0857470090870422,0.569806473661349,0.096991299181135,0.124694739878164,0,0,0,0,0,,-0.98388671875,-0.19775390625,0.06103515625,0.67138671875,-1.77001953125,0,4.02,85
2025/07/05 09:55:01.138,21.1,0.44948953889893,-0.0116538061933078,83.4403336870535,0.0857470090870422,0.567038690626103,0.102148597137596,0.113483973016769,0,0,0,0,0,,-0.984375,-0.19970703125,0.06103515625,0.8544921875,-1.03759765625,0.8544921875,4.02,85
2025/07/05 09:55:01.238,21.2,0.449997610788161,-0.0106128347071037,83.4544659651767,0.0803445234987747,0.567038690626103,0.107311220131614,0.102298286191667,0,0,0,0,0,,-0.982421875,-0.2021484375,0.05419921875,1.220703125,-1.89208984375,0.30517578125,4.02,85
2025/07/05 09:55:01.338,21.3,0.450916372367314,-0.00978257751900542,83.4612883017795,0.0561053166793366,0.542197348151217,0.096991299181135,0.0688905900220673,0,0,0,0,0,,-0.9833984375,-0.19775390625,0.05517578125,0.6103515625,-2.685546875,0.06103515625,4.02,85
2025/07/05 09:55:01.438,21.4,0.451971745809571,-0.00933451838223574,83.4754205799027,0.0212992864174031,0.506531902534539,0.0815512459683267,0.0219418889724627,0,0,0,0,0,,-0.982421875,-0.1953125,0.0595703125,0.30517578125,-2.44140625,0.42724609375,4.02,85
2025/07/05 09:55:01.538,21.5,0.453300860993203,-0.00900197506755795,83.491829725057,-0.0185627365043168,0.46027306986419,0.0584801979445331,-0.0354514705968549,0,0,0,0,0,,-0.978515625,-0.2041015625,0.06103515625,0.54931640625,-3.173828125,-0.3662109375,4.02,85
2025/07/05 09:55:01.638,21.6,0.454916915856608,-0.00809185484910266,83.5153050092728,0.0319830510068786,0.531196243767135,0.0815512459683267,0.0329490479042986,0,0,0,0,0,,-0.98876953125,-0.2041015625,0.06884765625,0,-3.11279296875,-0.30517578125,4.02,85
2025/07/05 09:55:01.738,21.7,0.456028889848674,-0.00740072760173732,83.5365034264576,0.101989578624166,0.625486335534086,0.128015183153257,0.133119341577225,0,0,0,0,0,,-0.986328125,-0.2021484375,0.07275390625,1.03759765625,-0.8544921875,0.79345703125,4.02,85
2025/07/05 09:55:01.838,21.8,0.457002976886276,-0.00721283633221064,83.5506357045809,0.107415515049748,0.633892053275351,0.135801325280267,0.133119341577225,0,0,0,0,0,,-0.9814453125,-0.20849609375,0.0673828125,1.28173828125,-1.03759765625,0.732421875,4.02,85
2025/07/05 09:55:01.938,21.9,0.457937003942096,-0.00701577474318591,83.5647679827041,0.11013069292016,0.639503726059124,0.140998830868342,0.127501363541807,0,0,0,0,0,,-0.9814453125,-0.19384765625,0.05908203125,0.67138671875,-1.28173828125,0.54931640625,4.02,85
2025/07/05 09:55:02.038,22.0,0.458920720258327,-0.00703150564114791,83.5715903193069,0.0938616983317768,0.625486335534086,0.133204597138029,0.0995057701037227,0,0,0,0,0,,-0.98681640625,-0.1962890625,0.05712890625,0.1220703125,-1.40380859375,-0.1220703125,4.02,85
2025/07/05 09:55:02.138,22.1,0.460635681044815,-0.00758101688080259,83.5688341118484,0.0614816612032567,0.583668417459663,0.115065163157028,0.0550363281087858,0,0,0,0,0,,-0.98046875,-0.2021484375,0.05859375,0.67138671875,-1.8310546875,-0.67138671875,4.02,85
2025/07/05 09:55:02.238,22.2,0.462439849259155,-0.00818020608197663,83.5660779043898,0.0186319084264319,0.53394425148978,0.0918393152884236,-0.00273597813967363,0,0,0,0,0,,-0.97998046875,-0.2041015625,0.0576171875,0.54931640625,-1.708984375,-1.46484375,4.02,85
2025/07/05 09:55:02.338,22.3,0.464652842983234,-0.00881313710040745,83.5633216969313,0.0106383017270608,0.525704755103651,0.0841212793970487,-0.0163934570642104,0,0,0,0,0,,-0.98193359375,-0.21533203125,0.0615234375,-0.06103515625,-2.38037109375,-0.30517578125,4.02,85
2025/07/05 09:55:02.438,22.4,0.467082823564062,-0.00984218271429037,83.5676316285344,0.0965695239736397,0.639503726059124,0.130609216895226,0.102298286191667,0,0,0,0,0,,-0.9892578125,-0.20947265625,0.064453125,0.1220703125,-2.74658203125,0.18310546875,4.02,85
2025/07/05 09:55:02.539,22.5,0.469525728711182,-0.0107771319793819,83.5696646931065,0.123728742980743,0.673306671204803,0.151410078618602,0.138743639049335,0,0,0,0,0,,-0.98388671875,-0.2060546875,0.0625,0.8544921875,-1.77001953125,0.8544921875,4.02,85
2025/07/05 09:55:02.639,22.6,0.472148677093542,-0.0117606413576625,83.564631618617,0.118285084385878,0.66201361180097,0.146201744891928,0.119086214415738,0,0,0,0,0,,-0.98388671875,-0.20166015625,0.05908203125,0.42724609375,-1.46484375,0.42724609375,4.02,85
2025/07/05 09:55:02.739,22.7,0.474917943378611,-0.0130499262305396,83.5504993404938,0.107415515049748,0.647933062012576,0.140998830868342,0.0995057701037227,0,0,0,0,0,,-0.98291015625,-0.2060546875,0.06103515625,0.30517578125,-2.13623046875,-0.244140625,4.02,85
2025/07/05 09:55:02.839,22.8,0.477640752228193,-0.0142885853106627,83.5363670623705,0.0776454681428183,0.614300648708984,0.122831149588304,0.0578041111440317,0,0,0,0,0,,-0.984375,-0.2099609375,0.060546875,0.6103515625,-2.50244140625,-0.42724609375,4.02,85
2025/07/05 09:55:02.939,22.9,0.480356329514033,-0.0155817955446676,83.5222347842473,0.042689693054053,0.567038690626103,0.0995692832163297,0.00821692859620793,0,0,0,0,0,,-0.9912109375,-0.20751953125,0.0615234375,-0.06103515625,-2.197265625,-0.67138671875,4.02,85
2025/07/05 09:55:03.039,23.0,0.483191290253817,-0.0170179651580957,83.5058256390931,-0.00265604251955942,0.51473983859199,0.0738490622750461,-0.049019999752649,0,0,0,0,0,,-0.9814453125,-0.21875,0.0634765625,0.8544921875,-2.197265625,0.1220703125,4.02,85
2025/07/05 09:55:03.139,23.1,0.486206809458235,-0.0190415818476168,83.4894164939389,0.0480516237829174,0.580892952539385,0.0944146436613482,0.0164473830069083,0,0,0,0,0,,-0.98388671875,-0.21533203125,0.06298828125,0.6103515625,-2.13623046875,-0.18310546875,4.02,85
2025/07/05 09:55:03.239,23.2,0.48915605885463,-0.0205475400452501,83.4730073487847,0.126452796398978,0.676133925973656,0.138399402722716,0.124694739878164,0,0,0,0,0,,-0.9833984375,-0.205078125,0.06201171875,0.48828125,-1.77001953125,0.48828125,4.02,85
2025/07/05 09:55:03.339,23.3,0.492027082866887,-0.0218688303497937,83.4524269021844,0.131905359562556,0.676133925973656,0.140998830868342,0.121889690758033,0,0,0,0,0,,-0.9833984375,-0.21240234375,0.06201171875,0.48828125,-1.64794921875,0.06103515625,4.02,85
2025/07/05 09:55:03.439,23.4,0.49508675824573,-0.0234295447168003,83.4318464555842,0.126452796398978,0.667656953173749,0.135801325280267,0.105092362780439,0,0,0,0,0,,-0.9814453125,-0.21728515625,0.06103515625,0.79345703125,-1.953125,0,4.02,85
2025/07/05 09:55:03.539,23.5,0.49800549378702,-0.0248187237537093,83.4093715745688,0.11013069292016,0.645121704094542,0.125422494515701,0.0800017055400879,0,0,0,0,0,,-0.98291015625,-0.21435546875,0.060546875,0.3662109375,-1.953125,-0.1220703125,4.02,85
2025/07/05 09:55:03.639,23.6,0.501047707676953,-0.0263469326706591,83.3887911279686,0.0776454681428183,0.605927774982089,0.107311220131614,0.0357046279825841,0,0,0,0,0,,-0.9814453125,-0.21240234375,0.06298828125,0.30517578125,-1.89208984375,0.244140625,4.02,84
2025/07/05 09:55:03.739,23.7,0.503985753656783,-0.0279237853664028,83.3704875483993,0.0346575629323729,0.553222710778497,0.0841212793970487,-0.0191204819071,0,0,0,0,0,,-0.9736328125,-0.2158203125,0.05712890625,0.8544921875,-1.8310546875,-0.42724609375,4.02,84
2025/07/05 09:55:03.839,23.8,0.506773582033736,-0.029739397549344,83.35218396883,0.0106383017270608,0.528449745524226,0.0661587250622562,-0.049019999752649,0,0,0,0,0,,-0.98193359375,-0.21728515625,0.06005859375,-0.3662109375,-2.25830078125,-0.244140625,4.02,84
2025/07/05 09:55:03.939,23.9,0.509581710767152,-0.0310353705177024,83.3268142501991,0.0965695239736397,0.633892053275351,0.107311220131614,0.063344277833286,0,0,0,0,0,,-0.98876953125,-0.21240234375,0.0625,0.3662109375,-1.8310546875,0.1220703125,4.02,84
2025/07/05 09:55:04.039,24.0,0.512352894679991,-0.0326985282235441,83.2985496939526,0.13736387530719,0.678962780320965,0.128015183153257,0.119086214415738,0,0,0,0,0,,-0.9794921875,-0.220703125,0.05859375,0.91552734375,-1.8310546875,-0.3662109375,4.02,84
2025/07/05 09:55:04.139,24.1,0.515092078843883,-0.0344804853565372,83.2725620047371,0.131905359562556,0.667656953173749,0.125422494515701,0.102298286191667,0,0,0,0,0,,-0.98046875,-0.2216796875,0.05908203125,0.30517578125,-2.25830078125,-0.3662109375,4.02,84
2025/07/05 09:55:04.239,24.2,0.517690219252652,-0.036451703577908,83.2465743155216,0.126452796398978,0.659194327866396,0.122831149588304,0.0883512759616005,0,0,0,0,0,,-0.98095703125,-0.22314453125,0.06201171875,-0.1220703125,-2.685546875,0.1220703125,4.02,84
2025/07/05 09:55:04.339,24.3,0.51990886505373,-0.0381321206758438,83.2205866263061,0.0992788168741177,0.628286671605883,0.10989453195632,0.0550363281087858,0,0,0,0,0,,-0.98388671875,-0.2197265625,0.0654296875,0.42724609375,-2.5634765625,0.42724609375,4.02,84
2025/07/05 09:55:04.439,24.4,0.521895880224526,-0.0392546499430662,83.1923220700597,0.0641720029014681,0.583668417459663,0.0892653126959302,0.00821692859620793,0,0,0,0,0,,-0.98828125,-0.21826171875,0.06640625,-0.06103515625,-2.25830078125,0.06103515625,4.02,84
2025/07/05 09:55:04.539,24.5,0.523465519969216,-0.0402432108584498,83.1594345821559,0.0159659526578633,0.525704755103651,0.0635979055822098,-0.0544371182949899,0,0,0,0,0,,-0.97998046875,-0.22607421875,0.06591796875,1.03759765625,-2.0751953125,0,4.02,84
2025/07/05 09:55:04.639,24.6,0.52465571856517,-0.0414442178936542,83.121924162595,0.0266383151419962,0.53944480201757,0.0635979055822098,-0.0408833015770185,0,0,0,0,0,,-0.9736328125,-0.22265625,0.0634765625,0.48828125,-1.89208984375,0.06103515625,4.02,84
2025/07/05 09:55:04.740,24.7,0.526361341040563,-0.0426468248186213,83.084413743034,0.11556547598296,0.650746001566652,0.107311220131614,0.0800017055400879,0,0,0,0,0,,-0.9794921875,-0.2197265625,0.060546875,0.79345703125,-1.8310546875,0.48828125,4.02,84
2025/07/05 09:55:04.840,24.8,0.528022924590908,-0.0437758580327584,83.046903323473,0.131905359562556,0.664834486304843,0.115065163157028,0.0995057701037227,0,0,0,0,0,,-0.97900390625,-0.2197265625,0.060546875,0.244140625,-1.953125,0.3662109375,4.02,84
2025/07/05 09:55:04.940,24.9,0.529547722625658,-0.0450463750617298,83.009392903912,0.126452796398978,0.650746001566652,0.112479179171018,0.0827833467386698,0,0,0,0,0,,-0.978515625,-0.22314453125,0.06201171875,0.3662109375,-2.5634765625,-0.3662109375,4.02,84
2025/07/05 09:55:05.040,25.0,0.530971654422665,-0.0461497751907421,82.9704396801471,0.112847346029912,0.631088576933055,0.107311220131614,0.063344277833286,0,0,0,0,0,,-0.98046875,-0.22509765625,0.0654296875,0.1220703125,-2.74658203125,-0.18310546875,4.02,84
2025/07/05 09:55:05.140,25.1,0.531611123793518,-0.0468541387100471,82.9325560571781,0.0857470090870422,0.597568898821585,0.0918393152884236,0.0246914078349825,0,0,0,0,0,,-0.9765625,-0.22607421875,0.06689453125,0,-2.44140625,0.244140625,4.02,84
2025/07/05 09:55:05.240,25.2,0.532153639739152,-0.0473756929645298,82.8913259663822,0.0480516237829174,0.553222710778497,0.0712843020621055,-0.0245700736460233,0,0,0,0,0,,-0.9765625,-0.22607421875,0.06689453125,0,-2.44140625,0.244140625,4.02,84
2025/07/05 09:55:05.340,25.3,0.532273145531709,-0.0478636461165431,82.8350603370407,0.005316321527431,0.503798915352259,0.0482604704714462,-0.0733509476459542,0,0,0,0,0,,-0.97705078125,-0.22705078125,0.0673828125,1.03759765625,-2.5634765625,0,4.02,84
2025/07/05 09:55:05.440,25.4,0.531805770878041,-0.0486039379447481,82.7717285686376,0.0641720029014681,0.578119027405549,0.0712843020621055,0.0054764517254684,0,0,0,0,0,,-0.98291015625,-0.2265625,0.0673828125,-0.06103515625,-2.13623046875,0.18310546875,4.04,84
2025/07/05 09:55:05.540,25.5,0.531297798742623,-0.0494228026614923,82.6967077295156,0.123728742980743,0.647933062012576,0.102148597137596,0.0883512759616005,0,0,0,0,0,,-0.97900390625,-0.220703125,0.06689453125,0.48828125,-1.15966796875,0.18310546875,4.04,84
2025/07/05 09:55:05.640,25.6,0.530940358261023,-0.049777835861982,82.6287530294553,0.121006172847864,0.636697102395481,0.102148597137596,0.0772216109866761,0,0,0,0,0,,-0.9794921875,-0.2294921875,0.06494140625,0.6103515625,-1.77001953125,0.06103515625,4.04,84
2025/07/05 09:55:05.740,25.7,0.530299553031273,-0.0499082935047228,82.5678644684565,0.11556547598296,0.628286671605883,0.0995692832163297,0.063344277833286,0,0,0,0,0,,-0.97900390625,-0.232421875,0.064453125,0.79345703125,-2.0751953125,0.732421875,4.04,84
2025/07/05 09:55:05.840,25.8,0.529515329080248,-0.0503216321597728,82.5069759074578,0.0938616983317768,0.605927774982089,0.0892653126959302,0.0384617275426535,0,0,0,0,0,,-0.978515625,-0.22705078125,0.06298828125,0.48828125,-2.50244140625,1.220703125,4.04,84
2025/07/05 09:55:05.940,25.9,0.528775464890521,-0.0506853156159552,82.4460873464591,0.0614816612032567,0.567038690626103,0.0738490622750461,-0.00273597813967363,0,0,0,0,0,,-0.9755859375,-0.22119140625,0.0654296875,0.244140625,-2.5634765625,0.91552734375,4.04,84
2025/07/05 09:55:06.040,26.0,0.528224247847455,-0.0508168263145887,82.3874756524913,0.0186319084264319,0.51473983859199,0.0508134447038295,-0.0571434782666098,0,0,0,0,0,,-0.9853515625,-0.21630859375,0.06982421875,-0.54931640625,-2.62451171875,0.42724609375,4.04,84
2025/07/05 09:55:06.140,26.1,0.527391040257527,-0.0507208921828831,82.3288639585235,0,0.495608905453107,0.0406093596816186,-0.0814350236600192,0,0,0,0,0,,-0.9765625,-0.22509765625,0.07177734375,0.42724609375,-2.99072265625,-0.06103515625,4.04,84
2025/07/05 09:55:06.240,26.2,0.526537687384354,-0.0510744725924791,82.2619290200037,0.0803445234987747,0.594785709255987,0.0764151387622105,0.0274424395002528,0,0,0,0,0,,-0.97900390625,-0.2275390625,0.07470703125,0.06103515625,-3.23486328125,0.1220703125,4.04,84
2025/07/05 09:55:06.340,26.3,0.525588612607008,-0.0516173346106904,82.1878659479016,0.11013069292016,0.628286671605883,0.0944146436613482,0.0744430613594655,0,0,0,0,0,,-0.9814453125,-0.2265625,0.0771484375,1.15966796875,-3.173828125,0.48828125,4.04,84
2025/07/05 09:55:06.440,26.4,0.524592161219555,-0.0518251159135299,82.1138028757996,0.10470181081733,0.617094725297757,0.0918393152884236,0.0605734271525122,0,0,0,0,0,,-0.97900390625,-0.2216796875,0.0751953125,0.54931640625,-2.13623046875,0.54931640625,4.02,84
2025/07/05 09:55:06.540,26.5,0.523645602496573,-0.0520646502781873,82.0333109935606,0.0992788168741177,0.605927774982089,0.0892653126959302,0.0439804918176065,0,0,0,0,0,,-0.97802734375,-0.224609375,0.0771484375,0.06103515625,-2.62451171875,0,4.02,84
2025/07/05 09:55:06.640,26.6,0.522848034043182,-0.0518867912281098,81.9399957151579,0.0722517244423124,0.57257578966983,0.0764151387622105,0.0109589083334178,0,0,0,0,0,,-0.9814453125,-0.224609375,0.08203125,-0.06103515625,-2.62451171875,0.244140625,4.02,84
2025/07/05 09:55:06.740,26.7,0.522011830102837,-0.0515167128797339,81.8407280558028,0.0400108824218033,0.5366937703523,0.0584801979445331,-0.0327333406438068,0,0,0,0,0,,-0.98095703125,-0.22021484375,0.083984375,0.244140625,-2.13623046875,0.3662109375,4.02,84
2025/07/05 09:55:06.841,26.8,0.521091121087081,-0.0513052591878183,81.7414603964476,-0.00265604251955942,0.487432288871294,0.0355151158120144,-0.08681715542351,0,0,0,0,0,,-0.9775390625,-0.22998046875,0.08154296875,0.67138671875,-1.8310546875,-0.18310546875,4.02,84
2025/07/05 09:55:06.941,26.9,0.519947823037364,-0.0519901964306478,81.6466115358436,0.0346575629323729,0.5366937703523,0.0508134447038295,-0.0381681237066065,0,0,0,0,0,,-0.978515625,-0.228515625,0.0791015625,0.06103515625,-1.3427734375,-0.1220703125,4.02,84
2025/07/05 09:55:07.041,27.0,0.518988684879175,-0.0524075497375947,81.5546575128551,0.101989578624166,0.619890364132397,0.0866926345195442,0.063344277833286,0,0,0,0,0,,-0.97509765625,-0.2216796875,0.072265625,0.79345703125,-0.79345703125,0,4.02,84
2025/07/05 09:55:07.141,27.1,0.518070267811109,-0.0527932138153321,81.4627034898665,0.101989578624166,0.61150813262104,0.0892653126959302,0.0605734271525122,0,0,0,0,0,,-0.9814453125,-0.22802734375,0.0751953125,-0.30517578125,-1.77001953125,0.18310546875,4.02,84
2025/07/05 09:55:07.241,27.2,0.517161714835244,-0.0527931931560537,81.370749466878,0.0965695239736397,0.603139929955589,0.0866926345195442,0.0495053541758708,0,0,0,0,0,,-0.97607421875,-0.2255859375,0.072265625,0.8544921875,-1.8310546875,-0.3662109375,4.02,84
2025/07/05 09:55:07.341,27.3,0.516120291292693,-0.0530058984242663,81.2787954438895,0.0803445234987747,0.580892952539385,0.0841212793970487,0.0246914078349825,0,0,0,0,0,,-0.97607421875,-0.23193359375,0.07275390625,0.42724609375,-2.197265625,-1.03759765625,4.02,84
2025/07/05 09:55:07.441,27.4,0.515029326463271,-0.0534402476883496,81.186841420901,0.050734746962676,0.547706990499901,0.0712843020621055,-0.0109349413195767,0,0,0,0,0,,-0.9794921875,-0.23388671875,0.07568359375,-0.54931640625,-1.89208984375,0.732421875,4.02,84
2025/07/05 09:55:07.541,27.5,0.513984274034825,-0.0538368141823266,81.0995103295698,0.0106383017270608,0.501067421197741,0.0482604704714462,-0.0625518075397244,0,0,0,0,0,,-0.9716796875,-0.2294921875,0.07421875,0.6103515625,-1.953125,0.42724609375,4.02,84
2025/07/05 09:55:07.641,27.6,0.513024966856113,-0.0545053059464511,81.0168021698958,0.005316321527431,0.498337418440597,0.0406093596816186,-0.0679542931279919,0,0,0,0,0,,-0.98095703125,-0.23583984375,0.07421875,0.244140625,-2.13623046875,-0.1220703125,4.02,84
2025/07/05 09:55:07.741,27.7,0.511878138331852,-0.0552620939568277,80.9340940102218,0.0911553383601569,0.603139929955589,0.0841212793970487,0.0522700763505402,0,0,0,0,0,,-0.98095703125,-0.23095703125,0.07470703125,-0.06103515625,-1.28173828125,0.67138671875,4.02,84
2025/07/05 09:55:07.841,27.8,0.510923792642704,-0.0555985277579724,80.8513858505478,0.121006172847864,0.633892053275351,0.0995692832163297,0.0939254124647713,0,0,0,0,0,,-0.97900390625,-0.23486328125,0.07421875,0.91552734375,-1.15966796875,2.0751953125,4.02,84
2025/07/05 09:55:07.941,27.9,0.510241813756471,-0.0557560248336658,80.7686776908738,0.118285084385878,0.628286671605883,0.102148597137596,0.0800017055400879,0,0,0,0,0,,-0.97509765625,-0.22509765625,0.0703125,0.732421875,-1.64794921875,1.40380859375,4.02,84
2025/07/05 09:55:08.041,28.0,0.50966070110798,-0.0556756700782595,80.6896892024347,0.11013069292016,0.617094725297757,0.096991299181135,0.0661166648882316,0,0,0,0,0,,-0.9794921875,-0.2197265625,0.07080078125,0,-2.01416015625,1.220703125,4.02,84
2025/07/05 09:55:08.141,28.1,0.508992058598195,-0.0555932189248731,80.6144203852304,0.0857470090870422,0.580892952539385,0.0841212793970487,0.0274424395002528,0,0,0,0,0,,-0.9833984375,-0.2216796875,0.072265625,0.42724609375,-2.01416015625,1.64794921875,4.02,84
2025/07/05 09:55:08.241,28.2,0.508239802398639,-0.055537984124583,80.5424980358529,0.050734746962676,0.53944480201757,0.0661587250622562,-0.0191204819071,0,0,0,0,0,,-0.97802734375,-0.21435546875,0.06982421875,0.3662109375,-0.54931640625,2.197265625,4.02,84
2025/07/05 09:55:08.341,28.3,0.507586467110252,-0.0553830139866716,80.485611225021,0.0106383017270608,0.495608905453107,0.0431584292884448,-0.0706533484839484,0,0,0,0,0,,-0.9775390625,-0.22021484375,0.0703125,0.9765625,-2.13623046875,0.42724609375,4.02,84
2025/07/05 09:55:08.441,28.4,0.507077758196588,-0.0552114550334342,80.4287244141891,0.0641720029014681,0.564272438867857,0.0687208567737105,0.00273747607467278,0,0,0,0,0,,-0.98291015625,-0.21728515625,0.07275390625,0.1220703125,-2.13623046875,0.732421875,4.02,84
2025/07/05 09:55:08.541,28.5,0.506695548436756,-0.0549210853031934,80.3835266740761,0.129178334719667,0.639503726059124,0.102148597137596,0.0939254124647713,0,0,0,0,0,,-0.98388671875,-0.208984375,0.06640625,0.79345703125,-1.708984375,1.5869140625,4.02,84
2025/07/05 09:55:08.641,28.6,0.506355144547712,-0.0549043275012631,80.3383289339631,0.134633872550046,0.636697102395481,0.10472924231772,0.0883512759616005,0,0,0,0,0,,-0.97705078125,-0.205078125,0.06396484375,0.48828125,-1.52587890625,0.244140625,4.02,84
2025/07/05 09:55:08.741,28.7,0.506121864432237,-0.054494542289293,80.2931311938501,0.131905359562556,0.633892053275351,0.10472924231772,0.0800017055400879,0,0,0,0,0,,-0.98388671875,-0.2236328125,0.06640625,0.244140625,-2.74658203125,-0.244140625,4.02,84
2025/07/05 09:55:08.841,28.8,0.505710672089124,-0.0542181524305413,80.2479334537372,0.112847346029912,0.608717175291809,0.0944146436613482,0.0522700763505402,0,0,0,0,0,,-0.9765625,-0.21533203125,0.0712890625,-0.30517578125,-2.74658203125,-0.42724609375,4.02,84
2025/07/05 09:55:08.941,28.9,0.505208079746443,-0.0538993510072227,80.2027357136242,0.0830450366216695,0.575346640350603,0.0815512459683267,0.0137023925863335,0,0,0,0,0,,-0.982421875,-0.2177734375,0.07275390625,0.1220703125,-2.0751953125,0.06103515625,4.02,84
2025/07/05 09:55:09.042,29.0,0.504569390295487,-0.0537590373050272,80.1575379735112,0.0453699396609806,0.531196243767135,0.0610383969901034,-0.0327333406438068,0,0,0,0,0,,-0.982421875,-0.22265625,0.0732421875,0.8544921875,-2.13623046875,0.48828125,4.02,84
2025/07/05 09:55:09.142,29.1,0.504117690058294,-0.053616359693855,80.1123402333982,0.0266383151419962,0.51473983859199,0.0508134447038295,-0.0571434782666098,0,0,0,0,0,,-0.98486328125,-0.2119140625,0.06884765625,0.48828125,-1.3427734375,0.79345703125,4.02,84
2025/07/05 09:55:09.242,29.2,0.503537940953456,-0.0534080060257858,80.0754657378372,0.107415515049748,0.619890364132397,0.0892653126959302,0.0578041111440317,0,0,0,0,0,,-0.97900390625,-0.2109375,0.064453125,0.67138671875,-1.15966796875,0.3662109375,4.02,84
2025/07/05 09:55:09.342,29.3,0.503235231219073,-0.0529718307665771,80.0498906773046,0.140095369461708,0.650746001566652,0.107311220131614,0.105092362780439,0,0,0,0,0,,-0.9833984375,-0.2109375,0.0673828125,1.0986328125,-1.220703125,-0.3662109375,4.02,84
2025/07/05 09:55:09.442,29.4,0.503023526977863,-0.052583296613671,80.0243156167719,0.134633872550046,0.633892053275351,0.102148597137596,0.0855665363042677,0,0,0,0,0,,-0.9833984375,-0.2109375,0.0673828125,1.0986328125,-1.220703125,-0.3662109375,4.02,84
2025/07/05 09:55:09.542,29.5,0.502812885685852,-0.0520107690860473,80.0070638007912,0.126452796398978,0.625486335534086,0.0995692832163297,0.0744430613594655,0,0,0,0,0,,-0.9755859375,-0.21923828125,0.05859375,2.0751953125,-1.5869140625,0,4.02,84
2025/07/05 09:55:09.642,29.6,0.502510175951469,-0.0515745938268386,80.0007409465592,0.101989578624166,0.592004068057405,0.0892653126959302,0.0412203482611799,0,0,0,0,0,,-0.98095703125,-0.22265625,0.06494140625,0.48828125,-2.62451171875,-0.244140625,4.02,84
2025/07/05 09:55:09.742,29.7,0.502119357596311,-0.0510847816783284,80.0003704732796,0.0695570329594148,0.550464090059971,0.0738490622750461,0,0,0,0,0,0,,-0.97998046875,-0.2158203125,0.06640625,0.244140625,-2.5634765625,0.6103515625,4.02,84
2025/07/05 09:55:09.842,29.8,0.501726607571508,-0.0506489907945489,80,0.0239680881490298,0.498337418440597,0.0482604704714462,-0.0571434782666098,0,0,0,0,0,,-0.9755859375,-0.220703125,0.06982421875,0.67138671875,-2.3193359375,-0.6103515625,4.02,84
2025/07/05 09:55:09.942,29.9,0.501291850794438,-0.0500693950894266,80,0.050734746962676,0.53944480201757,0.0584801979445331,-0.0191204819071,0,0,0,0,0,,-0.98291015625,-0.22021484375,0.07275390625,0.42724609375,-2.25830078125,0.244140625,4.02,84
2025/07/05 09:55:10.042,30.0,0.501087252253291,-0.0494873490276916,80,0.121006172847864,0.625486335534086,0.096991299181135,0.0883512759616005,0,0,0,0,0,,-0.98291015625,-0.2177734375,0.0712890625,0.3662109375,-1.40380859375,0.30517578125,4.02,84
2025/07/05 09:55:10.142,30.1,0.500878473214413,-0.0488594256511862,80,0.123728742980743,0.617094725297757,0.096991299181135,0.0883512759616005,0,0,0,0,0,,-0.97900390625,-0.21875,0.06982421875,0.8544921875,-1.46484375,0,4.02,84
2025/07/05 09:55:10.242,30.2,0.50038586725329,-0.0482827157094372,80,0.11556547598296,0.603139929955589,0.0944146436613482,0.0716660549423453,0,0,0,0,0,,-0.97998046875,-0.22119140625,0.064453125,0.91552734375,-1.220703125,-0.06103515625,4.02,84
2025/07/05 09:55:10.342,30.3,0.499893702393012,-0.0476221579256881,80,0.101989578624166,0.580892952539385,0.0866926345195442,0.0495053541758708,0,0,0,0,0,,-0.9775390625,-0.22412109375,0.06201171875,0.1220703125,-2.01416015625,-0.48828125,4.02,84
2025/07/05 09:55:10.442,30.4,0.499361125211017,-0.0469612603054809,80,0.0695570329594148,0.544951410421616,0.0738490622750461,0.0109589083334178,0,0,0,0,0,,-0.9765625,-0.21826171875,0.06884765625,-0.30517578125,-2.50244140625,-2.13623046875,4.02,84
2025/07/05 09:55:10.542,30.5,0.498736360581868,-0.0463060430786395,80,0.0319830510068786,0.495608905453107,0.0508134447038295,-0.0381681237066065,0,0,0,0,0,,-0.97998046875,-0.228515625,0.06591796875,2.62451171875,0.18310546875,-2.0751953125,4.04,84
2025/07/05 09:55:10.642,30.6,0.498113798966785,-0.0456944836494171,80,0.0159659526578633,0.484709718738415,0.0406093596816186,-0.051729292653127,0,0,0,0,0,,-0.9736328125,-0.2392578125,0.06591796875,-0.30517578125,-2.0751953125,-0.1220703125,4.04,84
2025/07/05 09:55:10.742,30.7,0.497526630679485,-0.0448731206110398,80,0.0884504424729866,0.575346640350603,0.0789825328753571,0.0605734271525122,0,0,0,0,0,,-0.974609375,-0.2373046875,0.06787109375,0.18310546875,-2.62451171875,-0.48828125,4.04,84
2025/07/05 09:55:10.842,30.8,0.496747739865431,-0.0442322970990944,80,0.10470181081733,0.592004068057405,0.0918393152884236,0.0995057701037227,0,0,0,0,0,,-0.9794921875,-0.236328125,0.0634765625,1.708984375,-1.52587890625,1.220703125,4.04,84
2025/07/05 09:55:10.942,30.9,0.495733164744011,-0.0438102967946016,80,0.0965695239736397,0.575346640350603,0.0892653126959302,0.0883512759616005,0,0,0,0,0,,-0.97314453125,-0.22509765625,0.05810546875,0.18310546875,-1.46484375,0.9765625,4.04,84
2025/07/05 09:55:11.042,31.0,0.494851803355298,-0.0433454185205024,80,0.0830450366216695,0.555982854334924,0.0866926345195442,0.0744430613594655,0,0,0,0,0,,-0.97705078125,-0.23486328125,0.0615234375,-0.18310546875,-2.8076171875,0.06103515625,4.04,84
2025/07/05 09:55:11.143,31.1,0.494063528031016,-0.0427504455363115,80,0.0534193107455532,0.517478814242786,0.0789825328753571,0.0384617275426535,0,0,0,0,0,,-0.9814453125,-0.22998046875,0.0693359375,0,-2.99072265625,0.42724609375,4.04,84
2025/07/05 09:55:11.243,31.2,0.493274158409058,-0.0419819334125337,80,0.0186319084264319,0.479269021873511,0.0661587250622562,-0.00547045998277884,0,0,0,0,0,,-0.98486328125,-0.22998046875,0.0703125,-0.3662109375,-2.685546875,0.30517578125,4.04,84
2025/07/05 09:55:11.343,31.3,0.492396419975222,-0.0413904813457979,80,-0.0185627365043168,0.433260578849965,0.0457087991093585,-0.0598483741537801,0,0,0,0,0,,-0.97900390625,-0.23828125,0.07275390625,0.8544921875,-2.13623046875,0,4.04,84
2025/07/05 09:55:11.443,31.4,0.491407877703233,-0.0409323774418328,80.0025275052037,0.0346575629323729,0.506531902534539,0.0738490622750461,0.0191938812498176,0,0,0,0,0,,-0.9716796875,-0.232421875,0.06787109375,0.42724609375,-1.77001953125,0.67138671875,4.04,84
2025/07/05 09:55:11.543,31.5,0.490238990805945,-0.0404390419103702,80.0238722147085,0.0965695239736397,0.589223973503993,0.115065163157028,0.121889690758033,0,0,0,0,0,,-0.97607421875,-0.22607421875,0.06591796875,0.48828125,-1.708984375,0.6103515625,4.02,84
2025/07/05 09:55:11.643,31.6,0.489253747332909,-0.0399045892694287,80.0452169242132,0.0992788168741177,0.583668417459663,0.122831149588304,0.121889690758033,0,0,0,0,0,,-0.978515625,-0.22900390625,0.06640625,0.48828125,-1.77001953125,0,4.02,84
2025/07/05 09:55:11.743,31.7,0.488166235907786,-0.0392832792348498,80.0866329985708,0.0965695239736397,0.578119027405549,0.125422494515701,0.113483973016769,0,0,0,0,0,,-0.9755859375,-0.23486328125,0.06396484375,0.48828125,-2.3193359375,-0.42724609375,4.02,84
2025/07/05 09:55:11.843,31.8,0.487354021728923,-0.0382856860396948,80.1280490729284,0.0803445234987747,0.561507716693188,0.122831149588304,0.0911375674382713,0,0,0,0,0,,-0.97802734375,-0.23583984375,0.0673828125,-0.1220703125,-2.8076171875,-0.244140625,4.02,84
2025/07/05 09:55:11.943,31.9,0.486682069029485,-0.0377109624857741,80.1611419027339,0.050734746962676,0.531196243767135,0.10989453195632,0.0578041111440317,0,0,0,0,0,,-0.9775390625,-0.234375,0.07177734375,-0.06103515625,-2.74658203125,0,4.02,84
2025/07/05 09:55:12.043,32.0,0.485966626581492,-0.037393301073762,80.1942347325394,0.0159659526578633,0.492881880610217,0.0918393152884236,0.00821692859620793,0,0,0,0,0,,-0.97021484375,-0.234375,0.0703125,0.42724609375,-2.25830078125,-0.244140625,4.02,84
2025/07/05 09:55:12.143,32.1,0.48529885652668,-0.0372416947532597,80.2273275623449,-0.00531067487578163,0.473834238810711,0.0789825328753571,-0.0191204819071,0,0,0,0,0,,-0.97998046875,-0.2392578125,0.07177734375,0,-2.3193359375,0.244140625,4.02,84
2025/07/05 09:55:12.243,32.2,0.484900760278086,-0.0367612601999874,80.2687436367025,0.0722517244423124,0.580892952539385,0.125422494515701,0.0995057701037227,0,0,0,0,0,,-0.98486328125,-0.23388671875,0.07470703125,0.06103515625,-1.89208984375,0.3662109375,4.02,84
2025/07/05 09:55:12.343,32.3,0.484545523908304,-0.0363220469723313,80.31015971106,0.11013069292016,0.631088576933055,0.156623843351187,0.166960417803647,0,0,0,0,0,,-0.97705078125,-0.2392578125,0.072265625,1.15966796875,-1.64794921875,0.18310546875,4.02,84
2025/07/05 09:55:12.443,32.4,0.48405121050521,-0.0358872991713528,80.355357451173,0.11013069292016,0.628286671605883,0.159232765886504,0.155654590656432,0,0,0,0,0,,-0.97412109375,-0.2333984375,0.06787109375,0.67138671875,-1.953125,0.1220703125,4.02,84
2025/07/05 09:55:12.543,32.5,0.483651566759126,-0.035446084948175,80.3922319467339,0.10470181081733,0.622687566960873,0.159232765886504,0.147191965349078,0,0,0,0,0,,-0.978515625,-0.23779296875,0.072265625,0.18310546875,-2.44140625,-0.30517578125,4.04,84
2025/07/05 09:55:12.643,32.6,0.483484537669173,-0.0348502428989784,80.4178070072666,0.0803445234987747,0.594785709255987,0.14880523358678,0.113483973016769,0,0,0,0,0,,-0.97607421875,-0.23876953125,0.07177734375,0.67138671875,-1.953125,0.06103515625,4.04,84
2025/07/05 09:55:12.743,32.7,0.483505420899021,-0.0345227124504583,80.4433820677993,0.050734746962676,0.564272438867857,0.130609216895226,0.0688905900220673,0,0,0,0,0,,-0.97509765625,-0.23681640625,0.0703125,0.42724609375,-2.0751953125,0.30517578125,4.04,84
2025/07/05 09:55:12.843,32.8,0.484169801346355,-0.0340517380082649,80.468957128332,0.0106383017270608,0.517478814242786,0.107311220131614,0.0164473830069083,0,0,0,0,0,,-0.9755859375,-0.2412109375,0.0712890625,0.9765625,-2.685546875,0,4.04,84
2025/07/05 09:55:12.943,32.9,0.485024090904163,-0.0334807600845205,80.4945321888647,-0.00265604251955942,0.503798915352259,0.0944146436613482,-0.00273597813967363,0,0,0,0,0,,-0.97998046875,-0.2412109375,0.0732421875,0.3662109375,-1.953125,0,4.04,84
2025/07/05 09:55:13.043,33.0,0.485412293082402,-0.0331326290621277,80.5201072493974,0.0776454681428183,0.61150813262104,0.140998830868342,0.119086214415738,0,0,0,0,0,,-0.97412109375,-0.23974609375,0.0693359375,0.67138671875,-1.5869140625,-0.06103515625,4.04,84
2025/07/05 09:55:13.143,33.1,0.486074633894117,-0.0331863696896118,80.5456823099301,0.11013069292016,0.647933062012576,0.159232765886504,0.164131563456339,0,0,0,0,0,,-0.974609375,-0.24072265625,0.0703125,0.3662109375,-1.953125,-0.06103515625,4.04,84
2025/07/05 09:55:13.244,33.2,0.487166073208172,-0.0330839375334865,80.5682811799866,0.10470181081733,0.631088576933055,0.156623843351187,0.147191965349078,0,0,0,0,0,,-0.9755859375,-0.24609375,0.0732421875,0.48828125,-2.44140625,-0.3662109375,4.04,84
2025/07/05 09:55:13.344,33.3,0.488494285019899,-0.0328891206507026,80.5908800500431,0.0965695239736397,0.622687566960873,0.151410078618602,0.130309563517615,0,0,0,0,0,,-0.9755859375,-0.24755859375,0.07275390625,0.18310546875,-2.38037109375,0.18310546875,4.04,84
2025/07/05 09:55:13.444,33.4,0.489817384801349,-0.0324224811881058,80.6134789200996,0.0722517244423124,0.592004068057405,0.135801325280267,0.0939254124647713,0,0,0,0,0,,-0.9755859375,-0.24267578125,0.07421875,0.244140625,-1.953125,1.3427734375,4.04,84
2025/07/05 09:55:13.544,33.5,0.491102087363223,-0.031772953362557,80.6360777901561,0.042689693054053,0.553222710778497,0.115065163157028,0.0495053541758708,0,0,0,0,0,,-0.9755859375,-0.24267578125,0.07421875,0.244140625,-1.953125,1.3427734375,4.04,84
2025/07/05 09:55:13.644,33.6,0.492385230712515,-0.03122054208709,80.6586766602125,0,0.503798915352259,0.0866926345195442,-0.00820344716505872,0,0,0,0,0,,-0.98388671875,-0.2353515625,0.072265625,-0.06103515625,-2.13623046875,0.3662109375,4.02,84
2025/07/05 09:55:13.744,33.7,0.493518477145844,-0.031471681906349,80.681275530269,-0.0106157150822028,0.492881880610217,0.0764151387622105,-0.0272926437789023,0,0,0,0,0,,-0.9736328125,-0.24658203125,0.07275390625,0.9765625,-2.13623046875,0.18310546875,4.02,84
2025/07/05 09:55:13.844,33.8,0.494791807261181,-0.0316418006141445,80.7038744003255,0.0695570329594148,0.592004068057405,0.115065163157028,0.0911375674382713,0,0,0,0,0,,-0.970703125,-0.24072265625,0.07470703125,0.732421875,-2.3193359375,0.79345703125,4.02,84
2025/07/05 09:55:13.944,33.9,0.4963907158912,-0.031803141450384,80.726473270382,0.0965695239736397,0.614300648708984,0.130609216895226,0.127501363541807,0,0,0,0,0,,-0.974609375,-0.24169921875,0.0751953125,1.52587890625,-2.01416015625,1.0986328125,4.02,84
2025/07/05 09:55:14.044,34.0,0.497397620826926,-0.0320244215219521,80.7437250863627,0.0884504424729866,0.594785709255987,0.122831149588304,0.105092362780439,0,0,0,0,0,,-0.9736328125,-0.23486328125,0.0751953125,1.03759765625,-1.953125,2.3193359375,4.02,84
2025/07/05 09:55:14.144,34.1,0.498680529611939,-0.0319783706348816,80.7496774673151,0.0749478689808125,0.575346640350603,0.115065163157028,0.0827833467386698,0,0,0,0,0,,-0.974609375,-0.2333984375,0.07421875,0.54931640625,-2.3193359375,0.67138671875,4.02,84
2025/07/05 09:55:14.244,34.2,0.499967358875786,-0.031748561103297,80.7522049725187,0.0453699396609806,0.5366937703523,0.0944146436613482,0.0384617275426535,0,0,0,0,0,,-0.9765625,-0.232421875,0.0771484375,0.18310546875,-2.38037109375,0.6103515625,4.02,84
2025/07/05 09:55:14.344,34.3,0.501203833834941,-0.0316557388720501,80.7547324777224,0.00797660354043783,0.492881880610217,0.0738490622750461,-0.0136649440767203,0,0,0,0,0,,-0.9736328125,-0.228515625,0.07666015625,1.3427734375,-2.25830078125,0.3662109375,4.02,84
2025/07/05 09:55:14.444,34.4,0.502302550590214,-0.0320946845177488,80.7522049725187,-0.0370568127960209,0.438651414871363,0.0457087991093585,-0.0706533484839484,0,0,0,0,0,,-0.97216796875,-0.23388671875,0.07666015625,0.67138671875,-1.46484375,-0.18310546875,4.02,84
2025/07/05 09:55:14.544,34.5,0.503138364278424,-0.0336266692968779,80.730860263014,-0.0449619526648188,0.425185207093807,0.0329699389051883,-0.0841268137252986,0,0,0,0,0,,-0.974609375,-0.24267578125,0.07763671875,0.54931640625,-2.44140625,0,4.02,84
2025/07/05 09:55:14.644,34.6,0.503560906822445,-0.034772674765106,80.7095155535092,0.0373335062263727,0.531196243767135,0.0738490622750461,0.0329490479042986,0,0,0,0,0,,-0.97607421875,-0.23876953125,0.08154296875,0.244140625,-2.86865234375,1.0986328125,4.02,84
2025/07/05 09:55:14.744,34.7,0.504082243828224,-0.0358321132282401,80.6680994791516,0.0587927663143097,0.550464090059971,0.0841212793970487,0.063344277833286,0,0,0,0,0,,-0.98681640625,-0.2294921875,0.08642578125,1.15966796875,-1.40380859375,2.197265625,4.02,84
2025/07/05 09:55:14.844,34.8,0.504376982438026,-0.0369602921025904,80.6266834047941,0.050734746962676,0.531196243767135,0.0764151387622105,0.0412203482611799,0,0,0,0,0,,-0.9697265625,-0.2255859375,0.06982421875,1.8310546875,-0.48828125,0.8544921875,4.02,84
2025/07/05 09:55:14.944,34.9,0.504725608954051,-0.037202182629556,80.5935905749886,0.042689693054053,0.509266384377644,0.0687208567737105,0.0191938812498176,0,0,0,0,0,,-0.9736328125,-0.22802734375,0.0712890625,-0.244140625,-2.8076171875,-0.67138671875,4.02,84
2025/07/05 09:55:15.044,35.0,0.504990916096762,-0.0370369690768547,80.5604977451831,0.0159659526578633,0.471119060940299,0.0559233071061516,-0.0163934570642104,0,0,0,0,0,,-0.9794921875,-0.236328125,0.078125,-0.9765625,-3.47900390625,-0.1220703125,4.02,84
2025/07/05 09:55:15.144,35.1,0.504932798925045,-0.0372420545272674,80.5274049153775,-0.0185627365043168,0.427875548792019,0.0355151158120144,-0.0625518075397244,0,0,0,0,0,,-0.9775390625,-0.23046875,0.0791015625,-0.54931640625,-2.38037109375,-0.30517578125,4.02,84
2025/07/05 09:55:15.244,35.2,0.504438480529993,-0.0385534636687632,80.4772169111954,-0.0396932483569707,0.401037052116923,0.0202634519511671,-0.0948795058812135,0,0,0,0,0,,-0.97265625,-0.23828125,0.0791015625,0.3662109375,-2.9296875,-0.42724609375,4.02,84
2025/07/05 09:55:15.344,35.3,0.50330005592692,-0.0397662997933793,80.4160999452647,0.0293099689194243,0.492881880610217,0.0559233071061516,0.00821692859620793,0,0,0,0,0,,-0.98291015625,-0.2353515625,0.0849609375,-0.91552734375,-3.90625,0.732421875,4.02,84
2025/07/05 09:55:15.445,35.4,0.502523503549745,-0.0408423130930079,80.3490442816544,0.0641720029014681,0.528449745524226,0.0738490622750461,0.0578041111440317,0,0,0,0,0,,-0.97802734375,-0.23095703125,0.0869140625,0.79345703125,-3.11279296875,0.9765625,4.02,84
2025/07/05 09:55:15.545,35.5,0.501797030833118,-0.0416762278165045,80.2903118625962,0.0587927663143097,0.509266384377644,0.0687208567737105,0.0384617275426535,0,0,0,0,0,,-0.97412109375,-0.22607421875,0.0869140625,0,-2.3193359375,0.732421875,4.02,84
2025/07/05 09:55:15.645,35.6,0.500349162780895,-0.0426108237155941,80.2428788785662,0.050734746962676,0.495608905453107,0.0635979055822098,0.0191938812498176,0,0,0,0,0,,-0.97900390625,-0.22998046875,0.09033203125,-0.54931640625,-2.38037109375,-0.42724609375,4.02,84
2025/07/05 09:55:15.745,35.7,0.49908119579129,-0.0430561908651508,80.1954458945363,0.0266383151419962,0.465693124514717,0.0508134447038295,-0.0136649440767203,0,0,0,0,0,,-0.98046875,-0.232421875,0.087890625,-0.06103515625,-1.77001953125,-0.30517578125,4.02,84
2025/07/05 09:55:15.845,35.8,0.49717909141607,-0.0435505121719454,80.1480129105063,-0.00531067487578163,0.425185207093807,0.0329699389051883,-0.0571434782666098,0,0,0,0,0,,-0.98095703125,-0.2275390625,0.08837890625,-0.3662109375,-1.15966796875,-0.8544921875,4.02,84
2025/07/05 09:55:15.945,35.9,0.495046241376952,-0.0443698421997083,80.1005799264764,-0.0449619526648188,0.377004963486425,0.010121460795331,-0.110965310400394,0,0,0,0,0,,-0.974609375,-0.23974609375,0.08349609375,1.3427734375,-0.732421875,-0.79345703125,4.02,84
2025/07/05 09:55:16.045,36.0,0.492672582333099,-0.0455963186509073,80.0531469424464,0.0159659526578633,0.46027306986419,0.0431584292884448,-0.0245700736460233,0,0,0,0,0,,-0.97119140625,-0.2451171875,0.07470703125,1.03759765625,-1.15966796875,-0.42724609375,4.02,84
2025/07/05 09:55:16.145,36.1,0.490244630180234,-0.0465121668220386,79.999099060516,0.0911553383601569,0.547706990499901,0.0866926345195442,0.0911375674382713,0,0,0,0,0,,-0.974609375,-0.23876953125,0.07568359375,0.1220703125,-2.197265625,0.48828125,4.02,84
2025/07/05 09:55:16.245,36.2,0.487899575262157,-0.0473948252498584,79.9414124711612,0.101989578624166,0.550464090059971,0.096991299181135,0.0967148127744917,0,0,0,0,0,,-0.97412109375,-0.234375,0.07763671875,0.06103515625,-2.38037109375,0.42724609375,4.02,84
2025/07/05 09:55:16.345,36.3,0.485200677336228,-0.0477922189047154,79.8837258818065,0.0992788168741177,0.544951410421616,0.0995692832163297,0.0855665363042677,0,0,0,0,0,,-0.97314453125,-0.24267578125,0.0810546875,0.30517578125,-2.9296875,-0.30517578125,4.02,84
2025/07/05 09:55:16.445,36.4,0.482651409441534,-0.0480827068470626,79.8260392924517,0.0857470090870422,0.528449745524226,0.0944146436613482,0.063344277833286,0,0,0,0,0,,-0.97265625,-0.2412109375,0.08642578125,0.06103515625,-2.86865234375,-0.244140625,4.02,84
2025/07/05 09:55:16.545,36.5,0.480154970700258,-0.0486597503580824,79.768352703097,0.0561053166793366,0.498337418440597,0.0815512459683267,0.0219418889724627,0,0,0,0,0,,-0.97900390625,-0.23974609375,0.09130859375,-0.54931640625,-2.8076171875,0.06103515625,4.02,84
2025/07/05 09:55:16.645,36.6,0.477621585293819,-0.0491717196643163,79.7172810116428,0.0159659526578633,0.452153988363537,0.0610383969901034,-0.0300137322408887,0,0,0,0,0,,-0.9755859375,-0.24658203125,0.08935546875,1.0986328125,-2.197265625,0.06103515625,4.02,84
2025/07/05 09:55:16.745,36.7,0.475181383658144,-0.0498014214282386,79.6662093201885,0.0186319084264319,0.46027306986419,0.0584801979445331,-0.0272926437789023,0,0,0,0,0,,-0.9765625,-0.24072265625,0.08740234375,0.3662109375,-1.46484375,0.1220703125,4.02,84
2025/07/05 09:55:16.845,36.8,0.4725603079829,-0.0500873248473698,79.6151376287342,0.10470181081733,0.575346640350603,0.112479179171018,0.110685204443556,0,0,0,0,0,,-0.97412109375,-0.2392578125,0.08251953125,0.67138671875,-1.220703125,-0.18310546875,4.02,84
2025/07/05 09:55:16.945,36.9,0.469941704656322,-0.0497339506598424,79.56406593728,0.13736387530719,0.605927774982089,0.135801325280267,0.152832123787526,0,0,0,0,0,,-0.97314453125,-0.24267578125,0.08251953125,0.67138671875,-1.28173828125,-0.42724609375,4.02,84
2025/07/05 09:55:17.045,37.0,0.467877315244475,-0.0490719381242028,79.5117264020011,0.134633872550046,0.603139929955589,0.138399402722716,0.141558162020076,0,0,0,0,0,,-0.97314453125,-0.248046875,0.07958984375,1.03759765625,-1.8310546875,-0.54931640625,4.02,84
2025/07/05 09:55:17.145,37.1,0.465499624616002,-0.0484293697988097,79.4706863017505,0.126452796398978,0.597568898821585,0.138399402722716,0.127501363541807,0,0,0,0,0,,-0.97265625,-0.251953125,0.08154296875,0.42724609375,-2.0751953125,-0.1220703125,4.02,84
2025/07/05 09:55:17.245,37.2,0.463677262938142,-0.0480351548234963,79.4330710772486,0.0992788168741177,0.569806473661349,0.128015183153257,0.0939254124647713,0,0,0,0,0,,-0.9716796875,-0.24658203125,0.0810546875,0.42724609375,-2.197265625,0.06103515625,4.02,84
2025/07/05 09:55:17.345,37.3,0.462095304949497,-0.0474895280806591,79.3954558527466,0.0641720029014681,0.53394425148978,0.10989453195632,0.0495053541758708,0,0,0,0,0,,-0.97509765625,-0.24658203125,0.08349609375,0.1220703125,-1.64794921875,-0.42724609375,4.02,84
2025/07/05 09:55:17.445,37.4,0.461069355898826,-0.0467800317371065,79.3577970505688,0.0159659526578633,0.479269021873511,0.0841212793970487,-0.00820344716505872,0,0,0,0,0,,-0.970703125,-0.2529296875,0.0849609375,0.48828125,-2.13623046875,0.18310546875,4.02,84
2025/07/05 09:55:17.546,37.5,0.460288585280033,-0.0455815975151631,79.3201382483909,0.0319830510068786,0.506531902534539,0.0918393152884236,0.0164473830069083,0,0,0,0,0,,-0.97021484375,-0.2509765625,0.0849609375,0.42724609375,-2.0751953125,0.06103515625,4.02,84
2025/07/05 09:55:17.646,37.6,0.459555017248174,-0.0445226764891521,79.2850505290927,0.121006172847864,0.622687566960873,0.14880523358678,0.152832123787526,0,0,0,0,0,,-0.9765625,-0.248046875,0.083984375,0.8544921875,-1.708984375,0.54931640625,4.02,84
2025/07/05 09:55:17.746,37.7,0.458958557266007,-0.0436710102019138,79.2499628097944,0.142828356643988,0.645121704094542,0.167067711222519,0.183967236667677,0,0,0,0,0,,-0.9765625,-0.248046875,0.083984375,0.8544921875,-1.708984375,0.54931640625,4.02,84
2025/07/05 09:55:17.846,37.8,0.458649632799916,-0.0424091245366751,79.2148750904962,0.140095369461708,0.647933062012576,0.169682090328094,0.172622932480766,0,0,0,0,0,,-0.96923828125,-0.244140625,0.0810546875,0.54931640625,-1.28173828125,0.42724609375,4.02,84
2025/07/05 09:55:17.946,37.9,0.458298249545101,-0.0412238887748958,79.1797873711979,0.126452796398978,0.636697102395481,0.167067711222519,0.152832123787526,0,0,0,0,0,,-0.97314453125,-0.25146484375,0.0791015625,0.54931640625,-2.01416015625,-0.30517578125,4.02,84
2025/07/05 09:55:18.046,38.0,0.458677787132057,-0.0403549515796149,79.1446996518997,0.0965695239736397,0.605927774982089,0.154016281401348,0.116284309088566,0,0,0,0,0,,-0.97216796875,-0.251953125,0.07763671875,0.91552734375,-2.3193359375,-0.18310546875,4.02,84
2025/07/05 09:55:18.146,38.1,0.459195072160258,-0.0392676037012118,79.1070408497218,0.0587927663143097,0.564272438867857,0.133204597138029,0.0688905900220673,0,0,0,0,0,,-0.978515625,-0.26123046875,0.0859375,0.42724609375,-2.50244140625,0.91552734375,4.02,84
2025/07/05 09:55:18.246,38.2,0.460351743853968,-0.0383031431444349,79.0781539773685,0.0133014175958741,0.517478814242786,0.107311220131614,0.0109589083334178,0,0,0,0,0,,-0.96533203125,-0.24853515625,0.08251953125,1.0986328125,-2.13623046875,0.91552734375,4.02,84
2025/07/05 09:55:18.346,38.3,0.461953625580448,-0.0379166729599994,79.0601960667639,0.042689693054053,0.561507716693188,0.120241146978982,0.0522700763505402,0,0,0,0,0,,-0.97119140625,-0.24853515625,0.08447265625,-0.06103515625,-2.685546875,1.0986328125,4.02,84
2025/07/05 09:55:18.446,38.4,0.463212539835104,-0.0368578684279694,79.0469662709629,0.123728742980743,0.670481014206461,0.172297837144484,0.172622932480766,0,0,0,0,0,,-0.98095703125,-0.23876953125,0.08837890625,-0.18310546875,-1.953125,1.0986328125,4.02,84
2025/07/05 09:55:18.546,38.5,0.464481542902652,-0.0356932177722279,79.0337364751619,0.131905359562556,0.673306671204803,0.180153298187634,0.178291867243926,0,0,0,0,0,,-0.9716796875,-0.23828125,0.08642578125,0.8544921875,-2.13623046875,-0.244140625,4.02,84
2025/07/05 09:55:18.646,38.6,0.466530050747894,-0.0345081118907627,79.0205066793609,0.123728742980743,0.667656953173749,0.177533439639094,0.158478651689144,0,0,0,0,0,,-0.97119140625,-0.2490234375,0.08349609375,1.03759765625,-1.8310546875,-1.52587890625,4.02,84
2025/07/05 09:55:18.746,38.7,0.468813297119356,-0.0337258391552863,79.0072768835599,0.107415515049748,0.656376632708426,0.172297837144484,0.138743639049335,0,0,0,0,0,,-0.97021484375,-0.2578125,0.08447265625,0.244140625,-2.197265625,-0.42724609375,4.02,84
2025/07/05 09:55:18.846,38.8,0.471269080000088,-0.0328718627351721,78.9940470877589,0.0749478689808125,0.622687566960873,0.154016281401348,0.0939254124647713,0,0,0,0,0,,-0.97265625,-0.25537109375,0.0859375,0.3662109375,-2.197265625,0.18310546875,4.02,84
2025/07/05 09:55:18.946,38.9,0.473983913855643,-0.0322223242068129,78.9782462090783,0.0346575629323729,0.578119027405549,0.130609216895226,0.0439804918176065,0,0,0,0,0,,-0.97705078125,-0.2431640625,0.0888671875,-0.3662109375,-2.197265625,-0.8544921875,4.02,84
2025/07/05 09:55:19.046,39.0,0.477045647730514,-0.0320922906124383,78.9581312665496,-0.00796389856525925,0.522961270850735,0.102148597137596,-0.0163934570642104,0,0,0,0,0,,-0.9716796875,-0.26123046875,0.08447265625,1.5869140625,-1.28173828125,-0.1220703125,4.02,84
2025/07/05 09:55:19.146,39.1,0.480335897590723,-0.0323913221355849,78.9446312219214,0.0480516237829174,0.600353638478918,0.130609216895226,0.0605734271525122,0,0,0,0,0,,-0.96923828125,-0.2548828125,0.083984375,-0.244140625,-1.8310546875,-0.67138671875,4.02,84
2025/07/05 09:55:19.246,39.2,0.483473476681682,-0.0324168998720747,78.9377460751936,0.112847346029912,0.681793236057743,0.174914953103474,0.158478651689144,0,0,0,0,0,,-0.96728515625,-0.25732421875,0.08203125,0.42724609375,-1.77001953125,-1.0986328125,4.02,84
2025/07/05 09:55:19.346,39.3,0.487037723002164,-0.0321501818108598,78.9308609284658,0.107415515049748,0.670481014206461,0.172297837144484,0.147191965349078,0,0,0,0,0,,-0.96923828125,-0.26416015625,0.08251953125,0.3662109375,-1.64794921875,-0.67138671875,4.02,84
2025/07/05 09:55:19.446,39.4,0.490692401596406,-0.0320711515138752,78.9239757817381,0.101989578624166,0.667656953173749,0.172297837144484,0.135930699495259,0,0,0,0,0,,-0.9677734375,-0.2646484375,0.078125,0.8544921875,-1.52587890625,-0.30517578125,4.02,84
2025/07/05 09:55:19.546,39.5,0.494466401536288,-0.0318460541709924,78.9170906350104,0.0803445234987747,0.639503726059124,0.159232765886504,0.105092362780439,0,0,0,0,0,,-0.96630859375,-0.26708984375,0.0791015625,0,-2.5634765625,-0.42724609375,4.02,84
2025/07/05 09:55:19.646,39.6,0.498226601359728,-0.031511363737325,78.9035905903821,0.042689693054053,0.594785709255987,0.138399402722716,0.0578041111440317,0,0,0,0,0,,-0.9677734375,-0.2626953125,0.08349609375,-0.91552734375,-2.9296875,-0.91552734375,4.02,84
2025/07/05 09:55:19.747,39.7,0.501829408851012,-0.0313896806852382,78.8905045967094,-0.00531067487578163,0.5366937703523,0.10989453195632,-0.00273597813967363,0,0,0,0,0,,-0.96337890625,-0.271484375,0.08447265625,1.0986328125,-2.25830078125,-1.220703125,4.02,84
2025/07/05 09:55:19.847,39.8,0.505487128729337,-0.0325175701458928,78.8774186030367,-0.0185627365043168,0.525704755103651,0.096991299181135,-0.0191204819071,0,0,0,0,0,,-0.96484375,-0.275390625,0.0849609375,0.3662109375,-2.01416015625,0.18310546875,4.02,84
2025/07/05 09:55:19.947,39.9,0.509114819797898,-0.0340934606483556,78.8621755774399,0.0776454681428183,0.647933062012576,0.154016281401348,0.121889690758033,0,0,0,0,0,,-0.97314453125,-0.27099609375,0.0849609375,0.06103515625,-2.13623046875,-0.244140625,4.02,84
2025/07/05 09:55:20.047,40.0,0.512901862310279,-0.0352862132258462,78.8535474497436,0.11013069292016,0.678962780320965,0.180153298187634,0.169790873540426,0,0,0,0,0,,-0.96923828125,-0.2724609375,0.083984375,0.732421875,-1.77001953125,0.1220703125,4.02,84
2025/07/05 09:55:20.147,40.1,0.516887009111614,-0.0362767295501627,78.8449193220473,0.10470181081733,0.667656953173749,0.177533439639094,0.152832123787526,0,0,0,0,0,,-0.9638671875,-0.26904296875,0.07958984375,1.03759765625,-1.220703125,0.42724609375,4.02,84
2025/07/05 09:55:20.247,40.2,0.520499024406842,-0.0369626245361525,78.8384482262751,0.0938616983317768,0.659194327866396,0.172297837144484,0.135930699495259,0,0,0,0,0,,-0.96484375,-0.27197265625,0.08203125,0.18310546875,-2.25830078125,-0.30517578125,4.02,84
2025/07/05 09:55:20.347,40.3,0.524011056027511,-0.0373588001173181,78.834134162427,0.0614816612032567,0.622687566960873,0.156623843351187,0.0939254124647713,0,0,0,0,0,,-0.97021484375,-0.2763671875,0.0849609375,0.42724609375,-2.38037109375,0,4.02,84
2025/07/05 09:55:20.447,40.4,0.527057126999151,-0.0379034568676619,78.8323911814584,0.0266383151419962,0.578119027405549,0.133204597138029,0.0467421598941637,0,0,0,0,0,,-0.97314453125,-0.27197265625,0.0849609375,0.06103515625,-2.01416015625,0.06103515625,4.02,84
2025/07/05 09:55:20.547,40.5,0.529940493942217,-0.038932510468138,78.8306482004899,-0.0238537422102141,0.51473983859199,0.102148597137596,-0.0163934570642104,0,0,0,0,0,,-0.96435546875,-0.27978515625,0.08447265625,0.91552734375,-1.953125,-0.18310546875,4.02,84
2025/07/05 09:55:20.647,40.6,0.532799062803895,-0.0407770031475463,78.8263341366418,0.005316321527431,0.553222710778497,0.115065163157028,0.0246914078349825,0,0,0,0,0,,-0.96142578125,-0.27783203125,0.08544921875,0.30517578125,-1.8310546875,0.1220703125,4.02,84
2025/07/05 09:55:20.747,40.7,0.535870495205902,-0.0419302544989058,78.8220200727936,0.0938616983317768,0.664834486304843,0.172297837144484,0.152832123787526,0,0,0,0,0,,-0.9658203125,-0.26953125,0.0830078125,1.0986328125,-1.8310546875,0.30517578125,4.02,84
2025/07/05 09:55:20.847,40.8,0.538910001270469,-0.0430295892955938,78.8177060089455,0.0992788168741177,0.667656953173749,0.180153298187634,0.158478651689144,0,0,0,0,0,,-0.96337890625,-0.27392578125,0.07763671875,0.30517578125,-1.77001953125,-0.30517578125,4.02,84
2025/07/05 09:55:20.947,40.9,0.541866924596118,-0.0440190481770952,78.8155489770214,0.0938616983317768,0.659194327866396,0.177533439639094,0.141558162020076,0,0,0,0,0,,-0.9658203125,-0.28173828125,0.08056640625,0.3662109375,-2.3193359375,-0.67138671875,4.02,84
2025/07/05 09:55:21.047,41.0,0.544313381318535,-0.0446980577360979,78.8133919450973,0.0776454681428183,0.642311926034933,0.169682090328094,0.121889690758033,0,0,0,0,0,,-0.96435546875,-0.2841796875,0.0830078125,0.42724609375,-2.44140625,-0.18310546875,4.02,84
2025/07/05 09:55:21.147,41.1,0.546746488916102,-0.045342903090848,78.8138059960529,0.042689693054053,0.600353638478918,0.151410078618602,0.0772216109866761,0,0,0,0,0,,-0.96435546875,-0.27783203125,0.083984375,0.42724609375,-2.3193359375,0.244140625,4.02,84
2025/07/05 09:55:21.247,41.2,0.548570008319563,-0.046010435872584,78.8142200470084,0.005316321527431,0.555982854334924,0.125422494515701,0.0274424395002528,0,0,0,0,0,,-0.95947265625,-0.27783203125,0.0830078125,0.6103515625,-1.52587890625,-0.18310546875,4.02,84
2025/07/05 09:55:21.347,41.3,0.55014178722167,-0.0470740354269443,78.8146340979639,-0.0396932483569707,0.501067421197741,0.096991299181135,-0.0300137322408887,0,0,0,0,0,,-0.96240234375,-0.28125,0.0869140625,-0.18310546875,-2.0751953125,0,4.02,84
2025/07/05 09:55:21.447,41.4,0.551912086662093,-0.048962176948129,78.8103200341158,0.0212992864174031,0.580892952539385,0.130609216895226,0.0578041111440317,0,0,0,0,0,,-0.9736328125,-0.2763671875,0.0859375,0.30517578125,-1.64794921875,0.42724609375,4.02,84
2025/07/05 09:55:21.547,41.5,0.55370676415858,-0.0507381956506818,78.8081630021917,0.0938616983317768,0.664834486304843,0.177533439639094,0.158478651689144,0,0,0,0,0,,-0.96484375,-0.28466796875,0.08203125,0.91552734375,-1.64794921875,-0.06103515625,4.02,84
2025/07/05 09:55:21.647,41.6,0.555343952951898,-0.0516666527794502,78.8060059702677,0.0884504424729866,0.656376632708426,0.177533439639094,0.150011249283653,0,0,0,0,0,,-0.96142578125,-0.28125,0.080078125,0.8544921875,-1.77001953125,-0.18310546875,4.02,84
2025/07/05 09:55:21.747,41.7,0.55665864489289,-0.052313147361291,78.8016919064195,0.0830450366216695,0.650746001566652,0.174914953103474,0.138743639049335,0,0,0,0,0,,-0.96435546875,-0.2861328125,0.0810546875,0.48828125,-2.38037109375,-0.3662109375,4.02,84
2025/07/05 09:55:21.848,41.8,0.557879836591056,-0.052904911511937,78.7969637916158,0.0614816612032567,0.625486335534086,0.164454698398223,0.110685204443556,0,0,0,0,0,,-0.9658203125,-0.28515625,0.08251953125,0.42724609375,-2.13623046875,0.42724609375,4.02,84
2025/07/05 09:55:21.948,41.9,0.558956014437176,-0.0534071635175576,78.7948067596918,0.0293099689194243,0.586445423876783,0.146201744891928,0.0688905900220673,0,0,0,0,0,,-0.9658203125,-0.28515625,0.08251953125,0.42724609375,-2.13623046875,0.42724609375,4.02,84
2025/07/05 09:55:22.048,42.0,0.559751571792358,-0.053858742625045,78.7969637916158,-0.0132661259184457,0.53394425148978,0.117652485297812,0.0164473830069083,0,0,0,0,0,,-0.97021484375,-0.2822265625,0.0869140625,-0.06103515625,-2.197265625,0.42724609375,4.02,84
2025/07/05 09:55:22.148,42.1,0.560029695265746,-0.0541919026574078,78.7991208235399,-0.0370568127960209,0.506531902534539,0.102148597137596,-0.0136649440767203,0,0,0,0,0,,-0.9638671875,-0.291015625,0.08447265625,0.8544921875,-2.197265625,0.244140625,4.02,84
2025/07/05 09:55:22.248,42.2,0.560476272226641,-0.0545984186909608,78.8016919064195,0.050734746962676,0.617094725297757,0.151410078618602,0.113483973016769,0,0,0,0,0,,-0.958984375,-0.28271484375,0.08544921875,0.48828125,-2.01416015625,0.30517578125,4.02,84
2025/07/05 09:55:22.348,42.3,0.560828973841362,-0.0551490108520599,78.8064200212232,0.0884504424729866,0.653560524537394,0.174914953103474,0.164131563456339,0,0,0,0,0,,-0.96044921875,-0.279296875,0.08056640625,0.8544921875,-1.953125,0.3662109375,4.02,84
2025/07/05 09:55:22.448,42.4,0.560971230252744,-0.0553488082006572,78.8111481360269,0.0803445234987747,0.639503726059124,0.169682090328094,0.144374270191109,0,0,0,0,0,,-0.9619140625,-0.2822265625,0.08203125,0.244140625,-1.64794921875,0.42724609375,4.02,84
2025/07/05 09:55:22.548,42.5,0.56112615142236,-0.0553024970728417,78.8133051679509,0.0722517244423124,0.631088576933055,0.167067711222519,0.130309563517615,0,0,0,0,0,,-0.9599609375,-0.28515625,0.08056640625,0.30517578125,-2.38037109375,-0.54931640625,4.02,84
2025/07/05 09:55:22.648,42.6,0.561517247291118,-0.0549269025314061,78.8133051679509,0.0453699396609806,0.594785709255987,0.151410078618602,0.0967148127744917,0,0,0,0,0,,-0.962890625,-0.2880859375,0.0859375,0.06103515625,-2.38037109375,0.06103515625,4.02,84
2025/07/05 09:55:22.748,42.7,0.561779481212018,-0.054218624123279,78.8111481360269,0.0159659526578633,0.561507716693188,0.130609216895226,0.0550363281087858,0,0,0,0,0,,-0.96240234375,-0.28515625,0.08544921875,0.30517578125,-2.38037109375,0.244140625,4.02,84
2025/07/05 09:55:22.848,42.8,0.561815367772926,-0.0539082131131552,78.8089911041028,-0.0317797675299376,0.501067421197741,0.0995692832163297,-0.00820344716505872,0,0,0,0,0,,-0.95703125,-0.2880859375,0.0849609375,0.732421875,-2.01416015625,-0.1220703125,4.02,84
2025/07/05 09:55:22.948,42.9,0.561495322123226,-0.0539668507871458,78.8089911041028,-0.0106157150822028,0.531196243767135,0.10989453195632,0.0219418889724627,0,0,0,0,0,,-0.962890625,-0.2880859375,0.08544921875,-0.06103515625,-2.197265625,0.244140625,4.02,84
2025/07/05 09:55:23.048,43.0,0.561267471314892,-0.0540727570820885,78.8089911041028,0.0749478689808125,0.633892053275351,0.159232765886504,0.144374270191109,0,0,0,0,0,,-0.9658203125,-0.28369140625,0.0849609375,0.1220703125,-1.40380859375,0.18310546875,4.02,84
2025/07/05 09:55:23.148,43.1,0.56108645485548,-0.0539584086686389,78.8019621552468,0.0803445234987747,0.628286671605883,0.161843050427906,0.150011249283653,0,0,0,0,0,,-0.96240234375,-0.2919921875,0.083984375,0.54931640625,-1.953125,-0.30517578125,4.02,84
2025/07/05 09:55:23.248,43.2,0.560598995168901,-0.0536471822336468,78.7857472256106,0.0722517244423124,0.619890364132397,0.159232765886504,0.133119341577225,0,0,0,0,0,,-0.96044921875,-0.2919921875,0.08056640625,0.67138671875,-2.197265625,0.1220703125,4.02,84
2025/07/05 09:55:23.348,43.3,0.559928207092644,-0.0532800947715052,78.7673752640504,0.0587927663143097,0.600353638478918,0.151410078618602,0.113483973016769,0,0,0,0,0,,-0.96142578125,-0.29248046875,0.08544921875,0.06103515625,-2.74658203125,-0.18310546875,4.02,84
2025/07/05 09:55:23.448,43.4,0.559393415060738,-0.0529634118038155,78.7490033024902,0.0293099689194243,0.561507716693188,0.133204597138029,0.0744430613594655,0,0,0,0,0,,-0.96484375,-0.29052734375,0.087890625,0.30517578125,-2.25830078125,0.244140625,4.02,84
2025/07/05 09:55:23.548,43.5,0.558865274984225,-0.0525095891556057,78.73063134093,-0.00531067487578163,0.517478814242786,0.10989453195632,0.0274424395002528,0,0,0,0,0,,-0.9697265625,-0.2880859375,0.0888671875,-0.06103515625,-1.8310546875,-0.18310546875,4.02,84
2025/07/05 09:55:23.648,43.6,0.558282823214024,-0.0523059411286817,78.7041092146861,-0.0449619526648188,0.468405356707881,0.0841212793970487,-0.0245700736460233,0,0,0,0,0,,-0.9599609375,-0.29833984375,0.0908203125,0.6103515625,-2.3193359375,0.1220703125,4.02,84
2025/07/05 09:55:23.748,43.7,0.557205953481756,-0.0525144679001062,78.6694369237584,0.0212992864174031,0.555982854334924,0.120241146978982,0.0716660549423453,0,0,0,0,0,,-0.95947265625,-0.2939453125,0.08935546875,0.42724609375,-2.3193359375,-0.1220703125,4.02,84
2025/07/05 09:55:23.848,43.8,0.556174926757323,-0.0529409070857398,78.6347646328307,0.0830450366216695,0.622687566960873,0.156623843351187,0.161304308687486,0,0,0,0,0,,-0.96142578125,-0.291015625,0.08447265625,1.03759765625,-2.13623046875,0.06103515625,4.02,84
2025/07/05 09:55:23.948,43.9,0.555297611156404,-0.0528028442966118,78.5963388859687,0.0803445234987747,0.608717175291809,0.154016281401348,0.147191965349078,0,0,0,0,0,,-0.95849609375,-0.29150390625,0.08447265625,0.3662109375,-1.708984375,0.1220703125,4.02,84
2025/07/05 09:55:24.049,44.0,0.554338444327256,-0.0523371327203439,78.5579131391068,0.0776454681428183,0.603139929955589,0.151410078618602,0.138743639049335,0,0,0,0,0,,-0.95849609375,-0.2978515625,0.08642578125,0.244140625,-2.50244140625,-0.3662109375,4.02,84
2025/07/05 09:55:24.149,44.1,0.553253941530359,-0.0515863016036261,78.5194873922448,0.0561053166793366,0.575346640350603,0.140998830868342,0.113483973016769,0,0,0,0,0,,-0.95849609375,-0.2978515625,0.0888671875,0.244140625,-2.44140625,-0.1220703125,4.02,84
2025/07/05 09:55:24.249,44.2,0.552130095201401,-0.0506964840283692,78.4908082340768,0.0266383151419962,0.5366937703523,0.122831149588304,0.0772216109866761,0,0,0,0,0,,-0.9580078125,-0.2939453125,0.08984375,0.3662109375,-2.5634765625,-0.42724609375,4.02,84
2025/07/05 09:55:24.349,44.3,0.551336722356039,-0.0497584868534425,78.4702792405925,-0.0132661259184457,0.487432288871294,0.102148597137596,0.0274424395002528,0,0,0,0,0,,-0.955078125,-0.30078125,0.08935546875,0.8544921875,-2.44140625,-0.42724609375,4.02,84
2025/07/05 09:55:24.449,44.4,0.550128079215722,-0.0488783378076949,78.4437571143486,-0.0264971469376549,0.476550891920462,0.096991299181135,0.0109589083334178,0,0,0,0,0,,-0.95947265625,-0.30029296875,0.0927734375,-0.1220703125,-2.25830078125,0.06103515625,4.02,84
2025/07/05 09:55:24.549,44.5,0.548899003541509,-0.0480640632952152,78.4129209242565,0.0641720029014681,0.592004068057405,0.14880523358678,0.141558162020076,0,0,0,0,0,,-0.95849609375,-0.30078125,0.0927734375,0.3662109375,-1.28173828125,-0.06103515625,4.02,84
2025/07/05 09:55:24.649,44.6,0.54747368255317,-0.0473814695901244,78.3820847341644,0.0965695239736397,0.622687566960873,0.164454698398223,0.1868073389454,0,0,0,0,0,,-0.95751953125,-0.306640625,0.08935546875,0.9765625,-1.64794921875,0.42724609375,4.02,84
2025/07/05 09:55:24.749,44.7,0.546156334288697,-0.0463139662153205,78.3534055759964,0.0938616983317768,0.614300648708984,0.161843050427906,0.172622932480766,0,0,0,0,0,,-0.95361328125,-0.2998046875,0.08544921875,1.03759765625,-2.0751953125,0.18310546875,4.02,84
2025/07/05 09:55:24.849,44.8,0.544900590867793,-0.0449531598421745,78.3332906334676,0.0884504424729866,0.605927774982089,0.159232765886504,0.161304308687486,0,0,0,0,0,,-0.95849609375,-0.30078125,0.09228515625,0.244140625,-2.5634765625,-0.1220703125,4.02,84
2025/07/05 09:55:24.949,44.9,0.543567731276919,-0.0432565245176969,78.3153327228629,0.0614816612032567,0.575346640350603,0.143599611122297,0.127501363541807,0,0,0,0,0,,-0.95703125,-0.3056640625,0.09375,0.42724609375,-2.3193359375,0.244140625,4.02,84
2025/07/05 09:55:25.049,45.0,0.542206179650859,-0.0414584158998682,78.3044037611143,0.0319830510068786,0.5366937703523,0.125422494515701,0.0855665363042677,0,0,0,0,0,,-0.96142578125,-0.29833984375,0.095703125,0.42724609375,-2.01416015625,-0.67138671875,4.02,84
2025/07/05 09:55:25.149,45.1,0.540570289274416,-0.0398890483193826,78.3005037482217,-0.0106157150822028,0.484709718738415,0.0995692832163297,0.0301949856338997,0,0,0,0,0,,-0.95654296875,-0.310546875,0.09814453125,0.48828125,-2.0751953125,0.244140625,4.02,84
2025/07/05 09:55:25.249,45.2,0.538821627027755,-0.0388543512651662,78.2891607355175,0.0212992864174031,0.528449745524226,0.112479179171018,0.0744430613594655,0,0,0,0,0,,-0.95703125,-0.30419921875,0.09521484375,0.54931640625,-2.13623046875,0.67138671875,4.02,84
2025/07/05 09:55:25.349,45.3,0.537343833555045,-0.0377151799250111,78.2756606908893,0.101989578624166,0.628286671605883,0.159232765886504,0.198183907961553,0,0,0,0,0,,-0.95849609375,-0.30029296875,0.0927734375,1.03759765625,-2.197265625,0.67138671875,4.02,84
2025/07/05 09:55:25.449,45.4,0.536046258901276,-0.0364362857934363,78.262160646261,0.107415515049748,0.628286671605883,0.164454698398223,0.201032099394591,0,0,0,0,0,,-0.9560546875,-0.29736328125,0.08935546875,1.64794921875,-1.77001953125,0.48828125,4.02,84
2025/07/05 09:55:25.549,45.5,0.534630838169021,-0.0347164427520762,78.2582606333684,0.10470181081733,0.622687566960873,0.161843050427906,0.192492387796062,0,0,0,0,0,,-0.95654296875,-0.3046875,0.08984375,0.79345703125,-2.38037109375,-0.30517578125,4.02,84
2025/07/05 09:55:25.649,45.6,0.53295048411058,-0.0328870055606252,78.2565176523999,0.0938616983317768,0.605927774982089,0.156623843351187,0.178291867243926,0,0,0,0,0,,-0.95654296875,-0.30908203125,0.09814453125,-0.732421875,-3.41796875,0.42724609375,4.02,84
2025/07/05 09:55:25.749,45.7,0.531453557976627,-0.031252686289738,78.2565176523999,0.0668637929667475,0.57257578966983,0.140998830868342,0.141558162020076,0,0,0,0,0,,-0.958984375,-0.29931640625,0.10498046875,-0.42724609375,-2.86865234375,0.79345703125,4.02,84
2025/07/05 09:55:25.849,45.8,0.530003987164928,-0.0293115612183177,78.2565176523999,0.0319830510068786,0.53394425148978,0.122831149588304,0.0995057701037227,0,0,0,0,0,,-0.9560546875,-0.3017578125,0.10205078125,1.46484375,-1.953125,-0.6103515625,4.02,84
2025/07/05 09:55:25.949,45.9,0.528595073538565,-0.0275630485288126,78.2565176523999,0.0106383017270608,0.509266384377644,0.107311220131614,0.0716660549423453,0,0,0,0,0,,-0.95849609375,-0.3125,0.09765625,1.708984375,-1.0986328125,0.6103515625,4.02,84
2025/07/05 09:55:26.049,46.0,0.527051966559933,-0.0255620070084293,78.2565176523999,0.0884504424729866,0.61150813262104,0.151410078618602,0.192492387796062,0,0,0,0,0,,-0.95263671875,-0.2998046875,0.09326171875,0,-1.28173828125,0.9765625,4.02,84
2025/07/05 09:55:26.150,46.1,0.525597447248262,-0.0234020129910807,78.2635466012559,0.126452796398978,0.650746001566652,0.174914953103474,0.25257894692079,0,0,0,0,0,,-0.95263671875,-0.2998046875,0.09326171875,0,-1.28173828125,0.9765625,4.02,84
2025/07/05 09:55:26.250,46.2,0.524508627844467,-0.0213325997738707,78.2797615308921,0.121006172847864,0.642311926034933,0.172297837144484,0.238206991278232,0,0,0,0,0,,-0.95751953125,-0.29833984375,0.0947265625,0.42724609375,-2.0751953125,0.30517578125,4.02,84
2025/07/05 09:55:26.350,46.3,0.523615839154102,-0.0191098132774748,78.2959764605282,0.11556547598296,0.636697102395481,0.169682090328094,0.232469756081339,0,0,0,0,0,,-0.95361328125,-0.30322265625,0.09326171875,0.9765625,-2.13623046875,-0.18310546875,4.02,84
2025/07/05 09:55:26.450,46.4,0.522594770307101,-0.0164139876474686,78.3121913901643,0.0938616983317768,0.603139929955589,0.159232765886504,0.203881914191315,0,0,0,0,0,,-0.95751953125,-0.30517578125,0.099609375,0.54931640625,-2.13623046875,-0.91552734375,4.02,84
