# Measure raw data (C) NeU Corporation. 2023. All rights reserved,,,,,,,,,,,,,,,,,,,,,,
# Raw data export format,,,,,,,,,,,,,,,,,,,,,,
# Ver 3.00,,,,,,,,,,,,,,,,,,,,,,
# ,,,,,,,,,,,,,,,,,,,,,,
# Sensor Informations,,,,,,,,,,,,,,,,,,,,,,
# Type,HOT-2000,,,,,,,,,,,,,,,,,,,,,
# ID,C0:84:18:33:34:4B,,,,,,,,,,,,,,,,,,,,,
# Version,2023072701,,,,,,,,,,,,,,,,,,,,,
# Connection,Bluetooth,,,,,,,,,,,,,,,,,,,,,
# Gain,16,38,14,29,,,,,,,,,,,,,,,,,,
# Average,1975,1796,1921,1825,,,,,,,,,,,,,,,,,,
# HbT Offset,3.56934093779999,2.9489530791261,3.59934102735344,3.66750668700132,,,,,,,,,,,,,,,,,,
# ,,,,,,,,,,,,,,,,,,,,,,
# Device time,Headset time,HbT change(left subtracted),HbT change(right subtracted),Estimated pulse rate,HbT change(left SD1cm),HbT change(left SD3cm),HbT change(right SD1cm),HbT change(right SD3cm),Saturation(left SD1cm),saturation(left SD3cm),Saturation(right SD1cm),saturation(right SD3cm),Noise detection flag,Mark,Accerelo-X,Accerelo-Y,Accerelo-Z,Gyro-X, Gyro-Y, Gyro-Z,Battery-Volt, Battery-Remain
2025/07/05 09:42:05.841,0.0,0,0,0,0,0,0,0,0,0,0,0,0, ,-0.982421875,0.1728515625,-0.04541015625,1.40380859375,-1.5869140625,-0.30517578125,4.06,88
2025/07/05 09:42:05.941,0.1,0.00873863536633745,0.0297286988041425,0,0.0601812672629669,0.0776585379956409,0.0251383130102374,0.0845957106185224,0,0,0,0,0, ,-0.984375,0.17578125,-0.05078125,0.54931640625,-1.64794921875,-0.244140625,4.06,88
2025/07/05 09:42:06.041,0.2,0.0131079530495057,0.0445930482062138,0,0.141566582710935,0.188447604335865,0.0808915507769985,0.218216445407854,0,0,0,0,0, ,-0.9873046875,0.18359375,-0.05029296875,0.30517578125,-1.77001953125,0.30517578125,4.06,88
2025/07/05 09:42:06.141,0.3,0.0194650174259379,0.0625257475106659,0,0.149264813524187,0.188447604335865,0.0885426615668261,0.226188809454845,0,0,0,0,0, ,-0.98046875,0.18212890625,-0.0498046875,0,-1.953125,0.18310546875,4.06,88
2025/07/05 09:42:06.241,0.4,0.0257475899028208,0.0812255342907133,0,0.149264813524187,0.186161890044405,0.0910956357992094,0.220872487927414,0,0,0,0,0, ,-0.97900390625,0.18310546875,-0.05224609375,0.06103515625,-2.62451171875,-0.42724609375,4.06,88
2025/07/05 09:42:06.341,0.5,0.0282333186461549,0.09086459039367,0,0.133880186231039,0.165637346136553,0.0834406203838247,0.204957355363963,0,0,0,0,0, ,-0.98095703125,0.1767578125,-0.04541015625,-0.79345703125,-2.74658203125,-0.6103515625,4.06,88
2025/07/05 09:42:06.441,0.6,0.0288206255227146,0.0963981260925523,0,0.105797396460844,0.131615895355435,0.0656243635700458,0.162763012763384,0,0,0,0,0, ,-0.98193359375,0.173828125,-0.0390625,-0.54931640625,-3.173828125,-2.62451171875,4.06,88
2025/07/05 09:42:06.541,0.7,0.0288159403623342,0.0984272833493521,0,0.0627046081822784,0.0866110917311786,0.0377550240334963,0.107917856727771,0,0,0,0,0, ,-0.9912109375,0.17626953125,-0.0390625,-0.3662109375,-1.03759765625,-1.40380859375,4.06,88
2025/07/05 09:42:06.641,0.8,0.0284412601788663,0.0982662040798504,0,0.0350176513648832,0.0664903405323738,0.017583539587819,0.069107830628639,0,0,0,0,0, ,-0.98291015625,0.1611328125,-0.0419921875,1.220703125,-2.50244140625,-2.44140625,4.06,88
2025/07/05 09:42:06.741,0.9,0.0296152943308739,0.0998914938355176,0,0.113440709937275,0.190734364003209,0.0630843584732603,0.191733333041632,0,0,0,0,0, ,-0.98486328125,0.15576171875,-0.041015625,0.244140625,-2.0751953125,-1.708984375,4.06,88
2025/07/05 09:42:06.841,1.0,0.0318776818984187,0.102411083154893,0,0.156974915168374,0.250560203403101,0.098762389039913,0.260883370349217,0,0,0,0,0, ,-0.98583984375,0.15771484375,-0.044921875,1.28173828125,-2.0751953125,-2.01416015625,4.06,88
2025/07/05 09:42:06.942,1.1,0.0334871074275759,0.104866513304948,0,0.156974915168374,0.250560203403101,0.0962054982015315,0.244840576076443,0,0,0,0,0, ,-0.99072265625,0.1484375,-0.04150390625,1.40380859375,-1.953125,-2.50244140625,4.06,88
2025/07/05 09:42:07.042,1.2,0.0345075357513213,0.106704577252066,0,0.156974915168374,0.255191977634735,0.0936499142330449,0.234173905523288,0,0,0,0,0, ,-0.99072265625,0.13623046875,-0.04345703125,0.3662109375,-2.62451171875,-2.25830078125,4.06,88
2025/07/05 09:42:07.142,1.3,0.0359521507745077,0.107636683998843,0,0.136441005711086,0.234382699353422,0.0808915507769985,0.197018745717199,0,0,0,0,0, ,-0.9912109375,0.134765625,-0.0419921875,-0.732421875,-2.38037109375,-1.89208984375,4.06,88
2025/07/05 09:42:07.242,1.4,0.0385840451599632,0.108599641013633,0,0.10834386961265,0.202183876506872,0.060545643046547,0.149649971086598,0,0,0,0,0, ,-0.9912109375,0.1318359375,-0.03759765625,-0.1220703125,-2.9296875,-2.01416015625,4.06,88
2025/07/05 09:42:07.342,1.5,0.0417162308479709,0.108885919071447,0,0.0677551135869461,0.156542300562822,0.0352291336410588,0.0794277515791175,0,0,0,0,0, ,-0.982421875,0.1259765625,-0.04248046875,-0.3662109375,-2.9296875,-3.90625,4.06,88
2025/07/05 09:42:07.442,1.6,0.0444568933249777,0.108885339835995,0,0.0627046081822784,0.163362033275674,0.0251383130102374,0.0613818441434342,0,0,0,0,0, ,-0.96435546875,0.0244140625,-0.05712890625,-14.5263671875,-13.24462890625,-13.85498046875,4.06,88
2025/07/05 09:42:07.542,1.7,0.0473325131356241,0.109679618948836,0,0.15954759334476,0.318144545293983,0.10388009667759,0.236838440585277,0,0,0,0,0, ,-1.0087890625,0.06787109375,0.01171875,-48.76708984375,-12.0849609375,-21.3623046875,4.06,88
2025/07/05 09:42:07.642,1.8,0.0500231230135634,0.110715506402524,0,0.208681683371546,0.453705759819687,0.170891407990606,0.290429520886828,0,0,0,0,0, ,-1.013671875,0.08447265625,0.0361328125,-36.80419921875,-4.33349609375,-16.4794921875,4.06,88
2025/07/05 09:42:07.742,1.9,0.0523158685515194,0.112287241162233,0,0.193113430237134,0.610427696166103,0.163113340683684,0.274291798672967,0,0,0,0,0, ,-0.99560546875,0.02587890625,0.0322265625,-17.333984375,-5.43212890625,-13.24462890625,4.06,88
2025/07/05 09:42:07.842,2.0,0.0544951338914706,0.113701802445971,0,0.162121595937253,0.670488477511146,0.152761370266398,0.27160723489009,0,0,0,0,0, ,-1.0029296875,-0.0224609375,0.05078125,-12.51220703125,-5.126953125,-11.3525390625,4.06,88
2025/07/05 09:42:07.942,2.1,0.0585649037549543,0.114798915072304,0,0.126205587754981,0.690670139322718,0.13985147431171,0.242171774344817,0,0,0,0,0, ,-1.005859375,-0.04296875,0.05517578125,-9.58251953125,-4.45556640625,-8.85009765625,4.06,88
2025/07/05 09:42:08.042,2.2,0.0674756743035383,0.114617766330932,0,0.0829373112604657,0.756828864384974,0.12954750379131,0.218216445407854,0,0,0,0,0, ,-1.00390625,-0.06201171875,0.0576171875,-7.26318359375,-3.662109375,-8.23974609375,4.06,88
2025/07/05 09:42:08.142,2.3,0.0825763840863879,0.114341001149864,0,0.0249875578800141,0.767085278084929,0.10900304786909,0.175910535262595,0,0,0,0,0, ,-0.99755859375,-0.07373046875,0.0478515625,-3.90625,-1.77001953125,-5.55419921875,4.06,88
2025/07/05 09:42:08.242,2.4,0.101464311304909,0.113980462119273,0,0.0174781698469588,0.810911286301701,0.114131253370426,0.197018745717199,0,0,0,0,0, ,-1.0029296875,-0.0908203125,0.05419921875,3.96728515625,-2.13623046875,-4.0283203125,4.06,88
2025/07/05 09:42:08.342,2.5,0.119784977839127,0.113613468371044,0,0.115991079758188,0.971409146809506,0.178681593818096,0.35005082264708,0,0,0,0,0, ,-1.00537109375,-0.0947265625,0.05224609375,6.28662109375,-0.42724609375,-3.11279296875,4.06,88
2025/07/05 09:42:08.442,2.6,0.137716874892017,0.113496915061711,0,0.149264813524187,1.03870491267675,0.212580028239864,0.413151796371787,0,0,0,0,0, ,-1.0009765625,-0.1025390625,0.05615234375,8.4228515625,-1.953125,-1.3427734375,4.06,88
2025/07/05 09:42:08.542,2.7,0.155830642706961,0.113553035292999,0,0.144131342923876,1.05499157178559,0.223056721283019,0.415913464448344,0,0,0,0,0, ,-0.994140625,-0.107421875,0.05078125,7.080078125,0.18310546875,-2.13623046875,4.06,88
2025/07/05 09:42:08.642,2.8,0.173799383867438,0.113605146936338,0,0.133880186231039,1.06315483878337,0.225679328175297,0.407633032096834,0,0,0,0,0, ,-1.0009765625,-0.11181640625,0.0458984375,3.72314453125,-0.67138671875,-2.0751953125,4.06,88
2025/07/05 09:42:08.742,2.9,0.194360159692665,0.114691436584269,0,0.103252219554018,1.03870491267675,0.217815630734474,0.380130212887598,0,0,0,0,0, ,-0.99853515625,-0.11181640625,0.03857421875,3.2958984375,-0.244140625,-1.3427734375,4.06,88
2025/07/05 09:42:08.842,3.0,0.217144220139599,0.116099142335025,0,0.0652292231945086,1.0035980987041,0.202125241523286,0.344601230908157,0,0,0,0,0, ,-1.00390625,-0.11474609375,0.03271484375,2.74658203125,-1.28173828125,-1.64794921875,4.06,88
2025/07/05 09:42:08.942,3.1,0.246666560872373,0.120338939345117,0,0.012478169504798,0.950064397529689,0.178681593818096,0.293124212369726,0,0,0,0,0, ,-0.99560546875,-0.12646484375,0.0341796875,1.708984375,-1.46484375,-1.46484375,4.06,88
2025/07/05 09:42:09.042,3.2,0.276192748560702,0.123544455925978,0,0.0174781698469588,0.968736064722052,0.181281021963722,0.306619497014456,0,0,0,0,0, ,-0.9951171875,-0.125,0.0380859375,2.197265625,-2.50244140625,-1.220703125,4.06,88
2025/07/05 09:42:09.143,3.3,0.305504438889219,0.125522680484851,0,0.118542751120276,1.11241632026438,0.244076194910471,0.446392915540856,0,0,0,0,0, ,-1,-0.12158203125,0.04052734375,2.8076171875,-2.197265625,-0.6103515625,4.06,88
2025/07/05 09:42:09.243,3.4,0.334732528552687,0.126901310430658,0,0.144131342923876,1.15384157731763,0.270475411070973,0.485455613642746,0,0,0,0,0, ,-0.99658203125,-0.1259765625,0.0419921875,3.173828125,-1.52587890625,-0.42724609375,4.06,88
2025/07/05 09:42:09.343,3.5,0.364147879883888,0.128919157877993,0,0.141566582710935,1.15384157731763,0.273123015011838,0.47705930616926,0,0,0,0,0, ,-0.9951171875,-0.126953125,0.041015625,3.23486328125,-1.89208984375,-1.220703125,4.06,88
2025/07/05 09:42:09.443,3.6,0.394227357583867,0.131030471843209,0,0.131320677638933,1.15106919026268,0.273123015011838,0.465886117328672,0,0,0,0,0, ,-0.994140625,-0.13427734375,0.04150390625,1.953125,-1.708984375,-1.220703125,4.06,88
2025/07/05 09:42:09.543,3.7,0.425788280128309,0.133563155587762,0,0.105797396460844,1.12067396033369,0.262541000637635,0.435287969442412,0,0,0,0,0, ,-0.998046875,-0.13232421875,0.0419921875,1.8310546875,-1.0986328125,-1.46484375,4.06,88
2025/07/05 09:42:09.643,3.8,0.457975799657053,0.136006551361653,0,0.0677551135869461,1.07952146526434,0.241443923238465,0.391113193526643,0,0,0,0,0, ,-0.99267578125,-0.1435546875,0.0361328125,2.50244140625,-0.8544921875,-1.40380859375,4.06,88
2025/07/05 09:42:09.743,3.9,0.490315301996837,0.137924775045959,0,0.0249875578800141,1.03058143416278,0.215197144198854,0.339157572313292,0,0,0,0,0, ,-0.99267578125,-0.1435546875,0.0361328125,2.50244140625,-0.8544921875,-1.40380859375,4.06,88
2025/07/05 09:42:09.843,4.0,0.522463136562375,0.139852066117509,0,0.0829373112604657,1.10966680140186,0.244076194910471,0.418676658730051,0,0,0,0,0, ,-0.99560546875,-0.14208984375,0.0390625,3.2958984375,-1.220703125,0.1220703125,4.06,88
2025/07/05 09:42:09.943,4.1,0.554289593355353,0.141789100447912,0,0.15954759334476,1.20961460318743,0.29435446910272,0.519182553837833,0,0,0,0,0, ,-1.00048828125,-0.14501953125,0.03515625,2.01416015625,-0.9765625,-0.732421875,4.06,88
2025/07/05 09:42:10.043,4.2,0.586463180475555,0.143879368111582,0,0.164696924310178,1.20961460318743,0.302339565171164,0.522003428341706,0,0,0,0,0, ,-0.9931640625,-0.140625,0.0322265625,0.42724609375,-1.77001953125,-1.03759765625,4.06,88
2025/07/05 09:42:10.143,4.3,0.618553987894304,0.146574419236495,0,0.15954759334476,1.20120888544616,0.29967644930235,0.507914943603515,0,0,0,0,0, ,-0.99365234375,-0.1376953125,0.03076171875,0.18310546875,-2.25830078125,-1.46484375,4.06,88
2025/07/05 09:42:10.243,4.4,0.650037148030588,0.149148806387536,0,0.13900313742254,1.17607618839099,0.291695601757163,0.479856508997736,0,0,0,0,0, ,-0.994140625,-0.15283203125,0.03515625,0.30517578125,-2.25830078125,-1.77001953125,4.06,88
2025/07/05 09:42:10.343,4.5,0.68132522348936,0.151391505755209,0,0.105797396460844,1.13446707232356,0.270475411070973,0.438061894576248,0,0,0,0,0, ,-0.9912109375,-0.15673828125,0.03369140625,1.52587890625,-2.13623046875,-1.220703125,4.06,88
2025/07/05 09:42:10.443,4.6,0.712532099802284,0.153434508250237,0,0.0677551135869461,1.08772491242939,0.246709853083289,0.393862712389163,0,0,0,0,0, ,-0.99169921875,-0.15771484375,0.03759765625,0.8544921875,-2.197265625,-1.15966796875,4.06,88
2025/07/05 09:42:10.543,4.7,0.743677338232153,0.155014126910961,0,0.0249875578800141,1.0332877941344,0.217815630734474,0.339157572313292,0,0,0,0,0, ,-0.9892578125,-0.16015625,0.03759765625,1.89208984375,-2.3193359375,-1.28173828125,4.06,88
2025/07/05 09:42:10.643,4.8,0.774752619222969,0.156441907329232,0,0.0905457325999968,1.11791989806329,0.244076194910471,0.42144138090472,0,0,0,0,0, ,-0.9931640625,-0.16552734375,0.0380859375,2.197265625,-1.89208984375,-0.732421875,4.06,88
2025/07/05 09:42:10.743,4.9,0.806062155062331,0.157685081613763,0,0.17501152296655,1.21803447594701,0.291695601757163,0.530475613241666,0,0,0,0,0, ,-0.99169921875,-0.1591796875,0.0361328125,2.0751953125,-1.46484375,-1.03759765625,4.06,88
2025/07/05 09:42:10.843,5.0,0.83751102160181,0.159738803537312,0,0.185347443805858,1.22084425400662,0.29967644930235,0.536131722357827,0,0,0,0,0, ,-0.990234375,-0.1689453125,0.03662109375,2.62451171875,-1.8310546875,-1.46484375,4.06,88
2025/07/05 09:42:10.943,5.1,0.86749125061882,0.161920435435462,0,0.182761459819848,1.21241965230756,0.297014751115727,0.522003428341706,0,0,0,0,0, ,-0.9892578125,-0.17138671875,0.0361328125,2.197265625,-2.0751953125,-2.685546875,4.06,88
2025/07/05 09:42:11.043,5.2,0.893463666362106,0.164914308514335,0,0.167273579829965,1.19002319862106,0.28638210505573,0.499480868071795,0,0,0,0,0, ,-0.9892578125,-0.181640625,0.03857421875,2.5634765625,-2.13623046875,-1.5869140625,4.06,88
2025/07/05 09:42:11.143,5.3,0.913878493428054,0.167647929165237,0,0.136441005711086,1.15384157731763,0.267829208349512,0.457522580515781,0,0,0,0,0, ,-0.98974609375,-0.18603515625,0.04052734375,2.5634765625,-1.89208984375,-0.18310546875,4.06,88
2025/07/05 09:42:11.244,5.4,0.930116776308178,0.170079657945906,0,0.100708337573174,1.11241632026438,0.241443923238465,0.41039165281536,0,0,0,0,0, ,-0.99072265625,-0.18359375,0.0419921875,1.40380859375,-1.5869140625,0.6103515625,4.06,88
2025/07/05 09:42:11.344,5.5,0.945377612687777,0.17265988566525,0,0.0551384025636872,1.04955678872279,0.209964281423474,0.347325284326392,0,0,0,0,0, ,-0.98291015625,-0.173828125,0.03857421875,1.8310546875,-0.91552734375,0.1220703125,4.06,88
2025/07/05 09:42:11.444,5.6,0.959754004848913,0.175091425556978,0,0.0601812672629669,1.05499157178559,0.199514956981884,0.347325284326392,0,0,0,0,0, ,-0.99169921875,-0.181640625,0.03662109375,1.46484375,-0.8544921875,-0.30517578125,4.06,88
2025/07/05 09:42:11.544,5.7,0.972756336405259,0.178165238677243,0,0.156974915168374,1.17329144873366,0.246709853083289,0.471469590745847,0,0,0,0,0, ,-0.99462890625,-0.1826171875,0.03173828125,1.64794921875,-1.0986328125,0,4.06,88
2025/07/05 09:42:11.644,5.8,0.984775592437855,0.181674504130868,0,0.187934765946641,1.19841011687295,0.262541000637635,0.510729466574257,0,0,0,0,0, ,-0.986328125,-0.1845703125,0.029296875,1.64794921875,-1.77001953125,-0.42724609375,4.06,88
2025/07/05 09:42:11.744,5.9,0.992998240993542,0.184265956998568,0,0.185347443805858,1.18443972520389,0.259898992689508,0.496672668095987,0,0,0,0,0, ,-0.986328125,-0.18115234375,0.02587890625,0.9765625,-1.8310546875,-0.06103515625,4.06,88
2025/07/05 09:42:11.844,6.0,0.997394695438575,0.18631267951911,0,0.172430877786426,1.17050825916806,0.251981334779269,0.47705930616926,0,0,0,0,0, ,-0.98681640625,-0.1884765625,0.03173828125,0.48828125,-2.62451171875,-0.42724609375,4.06,88
2025/07/05 09:42:11.944,6.1,1.00134453917036,0.188253608938863,0,0.141566582710935,1.131705404247,0.233555412647924,0.435287969442412,0,0,0,0,0, ,-0.9912109375,-0.18359375,0.03515625,0.42724609375,-2.5634765625,0.18310546875,4.06,88
2025/07/05 09:42:12.044,6.2,1.00469476567665,0.189810458665,0,0.105797396460844,1.08498893428972,0.209964281423474,0.385618687561089,0,0,0,0,0, ,-0.9892578125,-0.18701171875,0.0390625,0.6103515625,-2.38037109375,0.48828125,4.06,88
2025/07/05 09:42:12.144,6.3,1.00758973289784,0.190730534008331,0,0.0627046081822784,1.03058143416278,0.178681593818096,0.331003180847574,0,0,0,0,0, ,-0.98974609375,-0.18212890625,0.0380859375,0.48828125,-1.40380859375,-0.48828125,4.06,88
2025/07/05 09:42:12.244,6.4,1.009697305646,0.191064190290364,0,0.0174781698469588,0.971409146809506,0.147593411226993,0.27160723489009,0,0,0,0,0, ,-0.98779296875,-0.19384765625,0.03857421875,0.79345703125,-1.64794921875,0.48828125,4.06,88
2025/07/05 09:42:12.344,6.5,1.01183158585023,0.191022098398381,0,0.0829373112604657,1.05227344183254,0.170891407990606,0.347325284326392,0,0,0,0,0, ,-0.98388671875,-0.18701171875,0.0341796875,0.67138671875,-1.953125,0.1220703125,4.06,88
2025/07/05 09:42:12.444,6.6,1.01352704780617,0.192031634968344,0,0.151833526617156,1.131705404247,0.204736889493603,0.443614365913646,0,0,0,0,0, ,-0.98828125,-0.17919921875,0.03125,0.91552734375,-1.708984375,0.54931640625,4.06,88
2025/07/05 09:42:12.544,6.7,1.01361028416476,0.193410123126915,0,0.151833526617156,1.11791989806329,0.204736889493603,0.435287969442412,0,0,0,0,0, ,-0.98779296875,-0.185546875,0.03173828125,0.48828125,-1.64794921875,0.3662109375,4.06,88
2025/07/05 09:42:12.644,6.8,1.01274982796061,0.195090899961639,0,0.149264813524187,1.1041722954363,0.199514956981884,0.415913464448344,0,0,0,0,0, ,-0.986328125,-0.1865234375,0.03369140625,0.732421875,-2.13623046875,-0.48828125,4.06,88
2025/07/05 09:42:12.744,6.9,1.01104797285886,0.196076662610918,0,0.131320677638933,1.08498893428972,0.18908742468216,0.388365185803998,0,0,0,0,0, ,-0.98779296875,-0.1904296875,0.03466796875,0.1220703125,-1.953125,-0.18310546875,4.06,88
2025/07/05 09:42:12.844,7.0,1.00937316253444,0.19640281683341,0,0.100708337573174,1.04955678872279,0.168297374248637,0.344601230908157,0,0,0,0,0, ,-0.98583984375,-0.18798828125,0.03662109375,0.54931640625,-1.46484375,0.67138671875,4.06,88
2025/07/05 09:42:12.944,7.1,1.00807327101896,0.196238004565944,0,0.0627046081822784,1.00628988876938,0.1450114334131,0.293124212369726,0,0,0,0,0, ,-0.98779296875,-0.1845703125,0.0322265625,0.79345703125,-0.6103515625,-0.06103515625,4.06,88
2025/07/05 09:42:13.044,7.2,1.0063450186837,0.195622852770359,0,0.0149775446758094,0.950064397529689,0.11669732985759,0.234173905523288,0,0,0,0,0, ,-0.98779296875,-0.19287109375,0.029296875,1.3427734375,-1.03759765625,0.30517578125,4.06,88
2025/07/05 09:42:13.144,7.3,1.00444770325856,0.194846031696696,0,0.052618876218868,1.00090775700588,0.126974825614924,0.279665254241723,0,0,0,0,0, ,-0.98486328125,-0.18798828125,0.02880859375,0.91552734375,-1.46484375,0.67138671875,4.06,88
2025/07/05 09:42:13.244,7.4,1.00237706156315,0.194751211792586,0,0.126205587754981,1.09046238850407,0.163113340683684,0.382873697140514,0,0,0,0,0, ,-0.98486328125,-0.1826171875,0.021484375,1.8310546875,-1.40380859375,0.18310546875,4.06,88
2025/07/05 09:42:13.345,7.5,1.00010507882244,0.195938605280481,0,0.126205587754981,1.07952146526434,0.163113340683684,0.380130212887598,0,0,0,0,0, ,-0.98583984375,-0.1884765625,0.0244140625,0.18310546875,-1.8310546875,-0.42724609375,4.06,88
2025/07/05 09:42:13.445,7.6,0.997675259266875,0.197135379321227,0,0.115991079758188,1.06043226865049,0.155347354252408,0.358236363234604,0,0,0,0,0, ,-0.9853515625,-0.19091796875,0.0263671875,0.67138671875,-2.3193359375,-0.9765625,4.06,88
2025/07/05 09:42:13.545,7.7,0.994973433834172,0.197882439488804,36.8421052631579,0.0956244531234955,1.03870491267675,0.1450114334131,0.333719833957325,0,0,0,0,0, ,-0.98583984375,-0.19287109375,0.02880859375,0,-2.25830078125,-0.244140625,4.06,88
2025/07/05 09:42:13.645,7.8,0.992238184990453,0.198476510586692,55.2631578947368,0.0601812672629669,0.998218862116937,0.126974825614924,0.287736280894161,0,0,0,0,0, ,-0.98681640625,-0.19677734375,0.029296875,0,-2.38037109375,-0.42724609375,4.06,88
2025/07/05 09:42:13.745,7.9,0.989253568545606,0.198161073732609,61.4035087719298,0.022483175195303,0.950064397529689,0.106440916157636,0.242171774344817,0,0,0,0,0, ,-0.9892578125,-0.1923828125,0.02978515625,0.244140625,-1.40380859375,-0.244140625,4.06,88
2025/07/05 09:42:13.845,8.0,0.986013192333275,0.196569306818424,64.4844693701467,-0.0248633029764003,0.891831871465803,0.0783437800591997,0.183815675131393,0,0,0,0,0, ,-0.984375,-0.203125,0.03076171875,0.67138671875,-2.0751953125,0,4.06,88
2025/07/05 09:42:13.945,8.1,0.982806394542794,0.195053834065409,66.3330457290768,-0.00996016250778498,0.915572353592414,0.0808915507769985,0.202309751423097,0,0,0,0,0, ,-0.984375,-0.203125,0.03076171875,0.67138671875,-2.0751953125,0,4.06,88
2025/07/05 09:42:14.045,8.2,0.979822952244622,0.194400750105157,67.5726200747771,0.0854721655228663,1.0332877941344,0.124403470492429,0.328288002977162,0,0,0,0,0, ,-0.9833984375,-0.19921875,0.0302734375,0.67138671875,-2.197265625,-0.1220703125,4.06,88
2025/07/05 09:42:14.145,8.3,0.977096660004452,0.194730993491424,68.4580303217059,0.103252219554018,1.04412790661996,0.134696834756728,0.35005082264708,0,0,0,0,0, ,-0.9833984375,-0.1904296875,0.02685546875,0.54931640625,-2.25830078125,-0.30517578125,4.06,88
2025/07/05 09:42:14.245,8.4,0.974329951109359,0.195446243427331,69.1220880069025,0.0981657492013257,1.02787653827561,0.132121506383803,0.331003180847574,0,0,0,0,0, ,-0.9873046875,-0.19482421875,0.02783203125,-0.30517578125,-1.953125,-0.48828125,4.06,88
2025/07/05 09:42:14.345,8.5,0.97152098036547,0.195811931394785,69.6703336209376,0.0880083055343772,1.01167782024494,0.126974825614924,0.31202782628757,0,0,0,0,0, ,-0.9853515625,-0.20849609375,0.02734375,0.244140625,-2.50244140625,-1.15966796875,4.06,88
2025/07/05 09:42:14.445,8.6,0.968681498990126,0.195500718943349,70.1089301121657,0.0601812672629669,0.974083658735001,0.111566493157485,0.274291798672967,0,0,0,0,0, ,-0.98828125,-0.2060546875,0.0322265625,-0.30517578125,-2.50244140625,-0.6103515625,4.06,88
2025/07/05 09:42:14.545,8.7,0.965651880342696,0.194027469044822,70.4677817868068,0.0274931955799045,0.934115420926846,0.0936499142330449,0.231510789654474,0,0,0,0,0, ,-0.98095703125,-0.20556640625,0.033203125,0.732421875,-2.197265625,-0.67138671875,4.06,88
2025/07/05 09:42:14.645,8.8,0.962275337693786,0.191658734276025,70.7906420765027,-0.00996016250778498,0.88657148179017,0.0707082480197241,0.183815675131393,0,0,0,0,0, ,-0.984375,-0.21240234375,0.03271484375,-0.42724609375,-2.25830078125,0.8544921875,4.06,88
2025/07/05 09:42:14.745,8.9,0.958726036658449,0.189240132866395,71.0638315523993,-0.0496035806945883,0.839475372909498,0.0478713652194682,0.13395958187541,0,0,0,0,0, ,-0.982421875,-0.2080078125,0.0322265625,1.03759765625,-2.38037109375,0.48828125,4.06,88
2025/07/05 09:42:14.845,9.0,0.955408926723709,0.186972426391238,71.2979939603106,0.0149775446758094,0.920863359298311,0.0732521300005682,0.207606362008968,0,0,0,0,0, ,-0.98828125,-0.2060546875,0.03125,0.18310546875,-1.89208984375,0.06103515625,4.06,88
2025/07/05 09:42:14.945,9.1,0.952313921850171,0.18580877238056,71.5009347138338,0.0880083055343772,1.01167782024494,0.111566493157485,0.3093229304004,0,0,0,0,0, ,-0.98583984375,-0.205078125,0.03125,1.03759765625,-1.46484375,0.79345703125,4.06,88
2025/07/05 09:42:15.045,9.2,0.949346468375157,0.185027464642827,71.6785078731665,0.0930844480267101,1.0035980987041,0.111566493157485,0.306619497014456,0,0,0,0,0, ,-0.984375,-0.2060546875,0.033203125,0.9765625,-2.197265625,0.1220703125,4.06,88
2025/07/05 09:42:15.145,9.3,0.946379497494261,0.184583137707504,71.8351900725778,0.0880083055343772,0.992845406548181,0.106440916157636,0.287736280894161,0,0,0,0,0, ,-0.9873046875,-0.208984375,0.0322265625,1.5869140625,-1.77001953125,-0.8544921875,4.06,88
2025/07/05 09:42:15.245,9.4,0.94380781246539,0.183792886055713,71.9744631387211,0.0702822806488297,0.971409146809506,0.098762389039913,0.260883370349217,0,0,0,0,0, ,-0.9833984375,-0.21337890625,0.033203125,0.54931640625,-2.0751953125,-0.18310546875,4.06,88
2025/07/05 09:42:15.345,9.5,0.941160133327648,0.182502800952357,72.084033422642,0.0375283217292073,0.936770053283068,0.0834406203838247,0.220872487927414,0,0,0,0,0, ,-0.98486328125,-0.20947265625,0.03173828125,1.03759765625,-1.77001953125,-0.06103515625,4.06,88
2025/07/05 09:42:15.445,9.6,0.938424354289896,0.179834635980363,72.1826466781708,0,0.891831871465803,0.0630843584732603,0.175910535262595,0,0,0,0,0, ,-0.9814453125,-0.2119140625,0.02978515625,0.6103515625,-1.8310546875,0,4.06,88
2025/07/05 09:42:15.546,9.7,0.935906060176465,0.176766491506767,72.258258350795,-0.0446653087618114,0.839475372909498,0.0377550240334963,0.123526610066106,0,0,0,0,0, ,-0.98095703125,-0.2119140625,0.03076171875,0.8544921875,-2.0751953125,-0.244140625,4.06,88
2025/07/05 09:42:15.646,9.8,0.933803839324997,0.173934132250908,72.3269962349988,-0.0496035806945883,0.836871884214646,0.0327045186288286,0.120921765034284,0,0,0,0,0, ,-0.982421875,-0.20849609375,0.0283203125,0.6103515625,-1.953125,-0.30517578125,4.06,88
2025/07/05 09:42:15.746,9.9,0.931980962153679,0.172243560251931,72.3897569118806,0.0450679058552437,0.952727513398502,0.0783437800591997,0.239504396353845,0,0,0,0,0, ,-0.99267578125,-0.2138671875,0.03173828125,0.67138671875,-2.9296875,-1.708984375,4.06,88
2025/07/05 09:42:15.846,10.0,0.929955192925115,0.171293943469453,72.4472875323555,0.0677551135869461,0.971409146809506,0.0885426615668261,0.266242427588394,0,0,0,0,0, ,-0.98046875,-0.22021484375,0.03369140625,1.708984375,-2.5634765625,-1.46484375,4.06,88
2025/07/05 09:42:15.946,10.1,0.927912644265317,0.170634408190084,72.5002157031924,0.0601812672629669,0.960725382220031,0.0859909902047384,0.255530050859786,0,0,0,0,0, ,-0.97802734375,-0.22314453125,0.03662109375,0.244140625,-1.953125,-1.708984375,4.06,88
2025/07/05 09:42:16.046,10.2,0.926161213495846,0.170177072330349,72.5490724762726,0.052618876218868,0.95805800422906,0.0859909902047384,0.244840576076443,0,0,0,0,0, ,-0.9833984375,-0.2431640625,0.037109375,-0.06103515625,-1.8310546875,-0.8544921875,4.06,88
2025/07/05 09:42:16.146,10.3,0.924306492785437,0.169274651511064,72.5943102291247,0.0249875578800141,0.931462197237368,0.0732521300005682,0.215561813051632,0,0,0,0,0, ,-0.97802734375,-0.22705078125,0.03369140625,0.48828125,-0.9765625,1.708984375,4.06,88
2025/07/05 09:42:16.246,10.4,0.922562624787389,0.167505121372591,72.6363167139159,-0.00747198135392635,0.897097801310628,0.060545643046547,0.178544193435414,0,0,0,0,0, ,-0.97900390625,-0.2265625,0.03271484375,0.67138671875,-1.0986328125,0.48828125,4.06,88
2025/07/05 09:42:16.346,10.5,0.920753845064453,0.164608060087882,72.675426199756,-0.0545369801333004,0.839475372909498,0.0377550240334963,0.123526610066106,0,0,0,0,0, ,-0.9755859375,-0.224609375,0.021484375,1.5869140625,-1.3427734375,0.3662109375,4.06,88
2025/07/05 09:42:16.446,10.6,0.919308634324791,0.1620775323993,72.7119283865401,-0.0693080394003518,0.826471464602985,0.0301811777095171,0.113115362315846,0,0,0,0,0, ,-0.98291015625,-0.224609375,0.025390625,0.30517578125,-1.953125,0.9765625,4.06,88
2025/07/05 09:42:16.546,10.7,0.918146650848456,0.160680723124272,73.9428746045441,0.0249875578800141,0.942083549984501,0.0732521300005682,0.231510789654474,0,0,0,0,0, ,-0.98876953125,-0.2255859375,0.02685546875,0.6103515625,-2.01416015625,1.89208984375,4.06,88
2025/07/05 09:42:16.646,10.8,0.917027095664204,0.159705006436748,73.9450316364682,0.0551384025636872,0.971409146809506,0.0910956357992094,0.27697780460675,0,0,0,0,0, ,-0.97998046875,-0.21923828125,0.03125,1.46484375,-2.50244140625,1.15966796875,4.06,88
2025/07/05 09:42:16.746,10.9,0.91600022295347,0.159376457537161,73.9464696577509,0.0501006188372575,0.95805800422906,0.0910956357992094,0.260883370349217,0,0,0,0,0, ,-0.978515625,-0.2158203125,0.02880859375,-0.18310546875,-1.5869140625,0.42724609375,4.06,88
2025/07/05 09:42:16.846,11.0,0.914960780843671,0.159469211029796,73.9464696577509,0.0425534477054477,0.947402699343066,0.0859909902047384,0.242171774344817,0,0,0,0,0, ,-0.98291015625,-0.22021484375,0.03125,0.30517578125,-1.953125,0.6103515625,4.06,88
2025/07/05 09:42:16.946,11.1,0.913914850107352,0.159254485343111,73.9464696577509,0.0174781698469588,0.915572353592414,0.0732521300005682,0.210256772845211,0,0,0,0,0, ,-0.98291015625,-0.216796875,0.0302734375,0.732421875,-1.46484375,0.8544921875,4.06,88
2025/07/05 09:42:17.046,11.2,0.912515295186492,0.157875146897349,73.9450316364682,-0.00996016250778498,0.881316620638598,0.0554720759694165,0.165389753000048,0,0,0,0,0, ,-0.97705078125,-0.2119140625,0.0283203125,0.48828125,-1.0986328125,2.13623046875,4.06,88
2025/07/05 09:42:17.146,11.3,0.911044759823912,0.155452930508527,73.9435936151855,-0.0520708888746788,0.834269750445015,0.0327045186288286,0.115716142569801,0,0,0,0,0, ,-0.98046875,-0.21630859375,0.0263671875,2.01416015625,-1.28173828125,1.52587890625,4.06,88
2025/07/05 09:42:17.246,11.4,0.909533147376048,0.152898388309348,73.9418146836849,-0.066849224536198,0.821279356217944,0.0226187866654182,0.100131714600761,0,0,0,0,0, ,-0.9873046875,-0.2099609375,0.0224609375,1.40380859375,-0.48828125,1.220703125,4.06,88
2025/07/05 09:42:17.346,11.5,0.90863826694888,0.151285564086807,73.9297898505449,0.022483175195303,0.936770053283068,0.0656243635700458,0.218216445407854,0,0,0,0,0, ,-0.9638671875,-0.1982421875,0.01953125,1.0986328125,2.197265625,6.7138671875,4.06,88
2025/07/05 09:42:17.446,11.6,0.90809059395915,0.150532850153254,73.917765017405,0.052618876218868,0.966064410944624,0.0834406203838247,0.260883370349217,0,0,0,0,0, ,-0.9716796875,-0.1904296875,0.01171875,1.03759765625,0.244140625,2.9296875,4.06,88
2025/07/05 09:42:17.546,11.7,0.907543863015807,0.150200630416333,73.9057401842651,0.0450679058552437,0.950064397529689,0.0783437800591997,0.239504396353845,0,0,0,0,0, ,-0.98583984375,-0.19580078125,0.01171875,0.3662109375,-1.52587890625,-0.9765625,4.06,88
2025/07/05 09:42:17.647,11.8,0.907065932321668,0.150014260995594,73.8841884601271,0.0300000895534498,0.923510963239177,0.0732521300005682,0.215561813051632,0,0,0,0,0, ,-0.98828125,-0.1943359375,0.01025390625,-0.48828125,-1.0986328125,-1.46484375,4.06,88
2025/07/05 09:42:17.747,11.9,0.906709221571174,0.149786859518749,73.8633557466305,0,0.88657148179017,0.0580082159809274,0.178544193435414,0,0,0,0,0, ,-0.99853515625,-0.2041015625,0.0078125,1.40380859375,-1.77001953125,2.197265625,4.06,88
2025/07/05 09:42:17.847,12.0,0.906111572383118,0.149196562948628,73.8428639433518,-0.0372487438536511,0.839475372909498,0.0428106361179057,0.136571229845727,0,0,0,0,0, ,-0.99755859375,-0.18798828125,0.0068359375,0.48828125,-1.953125,4.638671875,4.06,88
2025/07/05 09:42:17.947,12.1,0.905073909362159,0.147029428144074,73.8220312298553,-0.0815840090471749,0.785084782984066,0.0251383130102374,0.0897690167453158,0,0,0,0,0, ,-0.97412109375,-0.1904296875,0.009765625,0.732421875,-3.72314453125,-4.39453125,4.06,88
2025/07/05 09:42:18.047,12.2,0.903970632927352,0.144638065840905,73.8004795057173,-0.088935149688413,0.777362773842262,0.017583539587819,0.0794277515791175,0,0,0,0,0, ,-0.98583984375,-0.21630859375,0.01318359375,-1.28173828125,0,0.1220703125,4.06,88
2025/07/05 09:42:18.147,12.3,0.903123109759734,0.143054075721002,73.7785496811559,0,0.881316620638598,0.0580082159809274,0.186453501584288,0,0,0,0,0, ,-0.98583984375,-0.21630859375,0.01318359375,-1.28173828125,0,0.1220703125,4.06,88
2025/07/05 09:42:18.247,12.4,0.902572993145992,0.142194256908674,73.7566198565945,0.0174781698469588,0.912928948864973,0.0707082480197241,0.220872487927414,0,0,0,0,0, ,-0.990234375,-0.19580078125,0.00537109375,1.89208984375,-1.77001953125,0.18310546875,4.06,88
2025/07/05 09:42:18.347,12.5,0.901957707306971,0.141569300475411,73.7442169230311,0.0074831641688049,0.894464143137809,0.0656243635700458,0.199663548701636,0,0,0,0,0, ,-0.98486328125,-0.1845703125,0.00341796875,0.244140625,-2.5634765625,-0.48828125,4.06,88
2025/07/05 09:42:18.447,12.6,0.901324776399104,0.141132402794781,73.7318139894677,-0.00747198135392635,0.876067276402635,0.060545643046547,0.181179239570443,0,0,0,0,0, ,-0.9794921875,-0.19091796875,0,-0.30517578125,-1.64794921875,0.48828125,4.06,88
2025/07/05 09:42:18.547,12.7,0.900653581936084,0.140664417819648,73.7296569575436,-0.0372487438536511,0.839475372909498,0.0478713652194682,0.149649971086598,0,0,0,0,0, ,-0.98046875,-0.19970703125,0.001953125,0.06103515625,-2.44140625,-1.5869140625,4.06,88
2025/07/05 09:42:18.647,12.8,0.899905845741806,0.139839892549142,73.7282189362609,-0.0766772373820448,0.795399381640439,0.0301811777095171,0.107917856727771,0,0,0,0,0, ,-0.9833984375,-0.208984375,0.00830078125,-0.91552734375,-3.7841796875,-3.23486328125,4.06,88
2025/07/05 09:42:18.747,12.9,0.899014960648959,0.138122337811754,73.7267809149782,-0.113361187154683,0.754268044904928,0.0150678163017939,0.0716858146638337,0,0,0,0,0, ,-0.9853515625,-0.21728515625,0.0166015625,0.6103515625,-2.86865234375,-0.18310546875,4.06,88
2025/07/05 09:42:18.847,13.0,0.898260997407013,0.136171084851015,73.7246238830541,-0.0446653087618114,0.844686420724066,0.0453403603942286,0.154891061635143,0,0,0,0,0, ,-0.98828125,-0.21923828125,0.015625,0.67138671875,-0.6103515625,1.0986328125,4.06,88
2025/07/05 09:42:18.947,13.1,0.897548842404245,0.13458088290735,73.7231858617714,0.012478169504798,0.910286940916846,0.0732521300005682,0.226188809454845,0,0,0,0,0, ,-0.98291015625,-0.20703125,0.00830078125,0.79345703125,-0.6103515625,2.13623046875,4.06,88
2025/07/05 09:42:19.047,13.2,0.89678632647386,0.133483641578775,73.7217478404887,-0.00249190133515409,0.88657148179017,0.0681656596478759,0.204957355363963,0,0,0,0,0, ,-0.98681640625,-0.19921875,0.00830078125,2.44140625,-0.91552734375,1.708984375,4.06,88
2025/07/05 09:42:19.147,13.3,0.896074469868687,0.13257381250872,73.7210288298473,-0.0124471060683793,0.868203578961813,0.0630843584732603,0.186453501584288,0,0,0,0,0, ,-0.9775390625,-0.15625,0.00537109375,10.25390625,0.48828125,-1.15966796875,4.06,88
2025/07/05 09:42:19.247,13.4,0.895314383930215,0.131622232879409,73.7210288298473,-0.0347741088486737,0.836871884214646,0.0504036518907109,0.157513668527421,0,0,0,0,0, ,-0.98486328125,-0.2119140625,0.013671875,23.92578125,0.54931640625,-1.52587890625,4.06,88
2025/07/05 09:42:19.347,13.5,0.894524587358014,0.130894902796729,73.7210288298473,-0.0693080394003518,0.800564671279038,0.0352291336410588,0.120921765034284,0,0,0,0,0, ,-0.978515625,-0.24072265625,0.00439453125,14.6484375,-1.5869140625,0.1220703125,4.06,88
2025/07/05 09:42:19.447,13.6,0.893644868819976,0.130078587357864,73.7210288298473,-0.113361187154683,0.751708536312822,0.017583539587819,0.0716858146638337,0,0,0,0,0, ,-0.97998046875,-0.22802734375,0.0078125,-1.15966796875,-1.8310546875,0.8544921875,4.06,88
2025/07/05 09:42:19.547,13.7,0.892442190023209,0.12832317052335,73.7210288298473,-0.0840355903296781,0.792818736460315,0.0276591095977854,0.105321128585533,0,0,0,0,0, ,-0.990234375,-0.2041015625,0.01611328125,-0.48828125,-2.50244140625,-0.48828125,4.06,88
2025/07/05 09:42:19.647,13.8,0.891379558738233,0.126610527888834,73.7217478404887,-0.00747198135392635,0.88657148179017,0.0656243635700458,0.204957355363963,0,0,0,0,0, ,-0.98193359375,-0.2109375,0.0107421875,1.708984375,-0.48828125,0.18310546875,4.06,88
2025/07/05 09:42:19.747,13.9,0.890297189356677,0.125166709792537,73.7327127527694,-0.00996016250778498,0.878691259630266,0.0656243635700458,0.197018745717199,0,0,0,0,0, ,-0.98046875,-0.208984375,0.01220703125,5.2490234375,-1.28173828125,-2.3193359375,4.06,88
2025/07/05 09:42:19.848,14.0,0.889410681752285,0.123864201945577,73.7641694683288,-0.0199005234865925,0.868203578961813,0.0656243635700458,0.178544193435414,0,0,0,0,0, ,-0.97998046875,-0.21484375,0.00927734375,7.080078125,-1.03759765625,-1.15966796875,4.06,88
2025/07/05 09:42:19.948,14.1,0.888607694578717,0.122484150058643,73.8065910961689,-0.0347741088486737,0.852513189750624,0.0630843584732603,0.165389753000048,0,0,0,0,0, ,-0.97705078125,-0.232421875,0.01123046875,11.962890625,-4.08935546875,-0.9765625,4.06,88
2025/07/05 09:42:20.048,14.2,0.887847102388047,0.121276941982834,73.8490127240089,-0.0619279643697208,0.821279356217944,0.0529372217070159,0.139184242670023,0,0,0,0,0, ,-0.984375,-0.25048828125,0.01904296875,9.27734375,-7.080078125,3.173828125,4.06,88
2025/07/05 09:42:20.148,14.3,0.887050258175396,0.120249506055605,73.891434351849,-0.101163084189596,0.785084782984066,0.0377550240334963,0.10272574834273,0,0,0,0,0, ,-0.97265625,-0.22216796875,0.03662109375,-5.4931640625,-5.859375,5.4931640625,4.06,88
2025/07/05 09:42:20.248,14.4,0.886445409248317,0.11895769675708,73.934196889907,-0.113361187154683,0.774791418719767,0.0276591095977854,0.0794277515791175,0,0,0,0,0, ,-0.98974609375,-0.20166015625,0.05712890625,-8.72802734375,-5.9814453125,1.52587890625,4.06,88
2025/07/05 09:42:20.348,14.5,0.885747301870879,0.117273624937202,73.9776784386064,-0.0248633029764003,0.883943360875262,0.0707082480197241,0.181179239570443,0,0,0,0,0, ,-0.99267578125,-0.18017578125,0.0634765625,-3.72314453125,-3.173828125,4.08935546875,4.06,88
2025/07/05 09:42:20.448,14.6,0.884896823709967,0.115806995759385,74.0211599873057,0,0.915572353592414,0.0885426615668261,0.212908589362154,0,0,0,0,0, ,-0.98583984375,-0.189453125,0.0595703125,-1.708984375,-1.8310546875,1.5869140625,4.06,88
2025/07/05 09:42:20.548,14.7,0.884438865965461,0.114512825328782,74.064641536005,-0.00747198135392635,0.899732847445657,0.0834406203838247,0.189092720397476,0,0,0,0,0, ,-0.98876953125,-0.20458984375,0.044921875,-12.8173828125,-0.79345703125,-1.0986328125,4.06,88
2025/07/05 09:42:20.648,14.8,0.884169881186821,0.113401154185908,74.1081230847044,-0.014932813266229,0.891831871465803,0.0834406203838247,0.173278263590589,0,0,0,0,0, ,-0.98388671875,-0.18896484375,0.03173828125,-13.00048828125,-0.244140625,-1.77001953125,4.06,88
2025/07/05 09:42:20.748,14.9,0.88407494971055,0.111991042730486,74.1508856227624,-0.0397221547007729,0.865585092426192,0.0757973069073943,0.152269829635138,0,0,0,0,0, ,-0.982421875,-0.19140625,0.0283203125,0.3662109375,-1.28173828125,-0.244140625,4.06,88
2025/07/05 09:42:20.848,15.0,0.884207097713728,0.110636019220695,74.1933072506025,-0.0742220446366679,0.829069542045434,0.0630843584732603,0.123526610066106,0,0,0,0,0, ,-0.982421875,-0.22802734375,0.0234375,0.48828125,-0.8544921875,-2.3193359375,4.06,88
2025/07/05 09:42:20.948,15.1,0.884514705857154,0.109422816076146,74.2360697886604,-0.0962754983404897,0.80832262462053,0.0529372217070159,0.100131714600761,0,0,0,0,0, ,-0.9755859375,-0.20849609375,0.01123046875,-10.8642578125,-1.3427734375,-3.11279296875,4.06,88
2025/07/05 09:42:21.048,15.2,0.885361677730909,0.108835248861417,74.2901445576988,-0.00747198135392635,0.923510963239177,0.10388009667759,0.207606362008968,0,0,0,0,0, ,-0.9716796875,-0.21142578125,0.0419921875,-17.333984375,-6.04248046875,-13.00048828125,4.06,88
2025/07/05 09:42:21.148,15.3,0.886156398500157,0.107939220741617,74.3657838678385,0.0249875578800141,0.952727513398502,0.126974825614924,0.242171774344817,0,0,0,0,0, ,-0.9912109375,-0.29443359375,0.01416015625,-16.29638671875,2.3193359375,-11.65771484375,4.06,88
2025/07/05 09:42:21.248,15.4,0.886688852712215,0.106689353810206,74.4520163983173,0.022483175195303,0.960725382220031,0.134696834756728,0.252855538934292,0,0,0,0,0, ,-0.978515625,-0.2744140625,0.001953125,-2.50244140625,15.56396484375,0,4.06,88
2025/07/05 09:42:21.348,15.5,0.887633797761994,0.10605987597222,74.538248928796,0.0375283217292073,1.01167782024494,0.168297374248637,0.31202782628757,0,0,0,0,0, ,-0.9697265625,-0.25048828125,-0.00048828125,6.77490234375,-2.44140625,3.7841796875,4.06,88
2025/07/05 09:42:21.448,15.6,0.888805458944726,0.105398200692516,74.6244814592747,0.0174781698469588,0.990160842765304,0.165704685611081,0.285044490828882,0,0,0,0,0, ,-0.97119140625,-0.27197265625,0.0244140625,-4.8828125,-4.45556640625,-2.62451171875,4.06,88
2025/07/05 09:42:21.548,15.7,0.890680826889752,0.104497417826426,74.7099949791121,-0.0248633029764003,0.931462197237368,0.13985147431171,0.212908589362154,0,0,0,0,0, ,-0.9970703125,-0.23095703125,0.02001953125,-1.15966796875,1.28173828125,1.3427734375,4.06,88
2025/07/05 09:42:21.648,15.8,0.892798244727871,0.103825068647711,74.7947894883081,-0.0717656457046809,0.881316620638598,0.111566493157485,0.157513668527421,0,0,0,0,0, ,-0.95361328125,-0.26416015625,-0.00244140625,8.23974609375,0.3662109375,-2.50244140625,4.06,88
2025/07/05 09:42:21.748,15.9,0.895205989210675,0.103342170323483,74.8795839975041,-0.0347741088486737,0.934115420926846,0.126974825614924,0.207606362008968,0,0,0,0,0, ,-0.97216796875,-0.28564453125,-0.00537109375,1.15966796875,-1.3427734375,-4.5166015625,4.06,88
2025/07/05 09:42:21.848,16.0,0.89705200420373,0.103043493593938,74.9650975173415,0.0475836291412688,1.0332877941344,0.178681593818096,0.31473418625919,0,0,0,0,0, ,-0.96337890625,-0.2958984375,-0.00390625,0.91552734375,-1.15966796875,-2.74658203125,4.06,88
2025/07/05 09:42:21.949,16.1,0.89885228967443,0.102881631664029,75.0514328585868,0.0601812672629669,1.05499157178559,0.199514956981884,0.344601230908157,0,0,0,0,0, ,-0.96142578125,-0.27978515625,0.001953125,4.94384765625,-0.67138671875,-1.953125,4.06,88
2025/07/05 09:42:22.049,16.2,0.901120084877425,0.102602714792581,75.1569043397994,0.0601812672629669,1.05771118018851,0.207349902317899,0.344601230908157,0,0,0,0,0, ,-0.974609375,-0.27783203125,0.00439453125,12.02392578125,-0.54931640625,0,4.06,88
2025/07/05 09:42:22.149,16.3,0.904080705265741,0.102920506752945,75.2616568103706,0.0501006188372575,1.04684161085238,0.202125241523286,0.331003180847574,0,0,0,0,0, ,-0.9423828125,-0.28662109375,-0.0107421875,14.46533203125,-1.220703125,-0.8544921875,4.06,88
2025/07/05 09:42:22.249,16.4,0.907509639563884,0.103382752852062,75.3974094585531,0.0199800462691844,1.01167782024494,0.186483935987308,0.290429520886828,0,0,0,0,0, ,-0.98095703125,-0.35791015625,0.033203125,6.591796875,-6.40869140625,-1.64794921875,4.06,88
2025/07/05 09:42:22.349,16.5,0.910979569573187,0.103665386505965,75.5488824110808,-0.014932813266229,0.968736064722052,0.165704685611081,0.250182456846838,0,0,0,0,0, ,-0.98095703125,-0.35791015625,0.033203125,6.591796875,-6.40869140625,-1.64794921875,4.06,88
2025/07/05 09:42:22.449,16.6,0.914597991943594,0.103413659692572,75.7073843124645,-0.0298211615139974,0.968736064722052,0.157934676393192,0.236838440585277,0,0,0,0,0, ,-0.95947265625,-0.28076171875,0.03271484375,5.55419921875,-1.46484375,1.40380859375,4.06,88
2025/07/05 09:42:22.549,16.7,0.918615782333482,0.104112755069527,75.871318738694,0.03250824106102,1.04412790661996,0.183881802217677,0.3093229304004,0,0,0,0,0, ,-0.95849609375,-0.2880859375,0.0341796875,2.99072265625,-2.44140625,-2.197265625,4.06,88
2025/07/05 09:42:22.649,16.8,0.922554550800197,0.10472993274581,76.0352531649235,0.0880083055343772,1.09868382076281,0.215197144198854,0.377388233150388,0,0,0,0,0, ,-0.96435546875,-0.29638671875,0.0244140625,3.47900390625,1.953125,-4.2724609375,4.06,88
2025/07/05 09:42:22.749,16.9,0.926440785048378,0.105217587985641,76.189660700155,0.0905457325999968,1.09046238850407,0.217815630734474,0.374647756279649,0,0,0,0,0, ,-0.94482421875,-0.33203125,0.00537109375,5.06591796875,1.708984375,-4.638671875,4.06,88
2025/07/05 09:42:22.849,17.0,0.930154060199364,0.105845508656877,76.3253194130764,0.0854721655228663,1.0959418410256,0.223056721283019,0.377388233150388,0,0,0,0,0, ,-0.947265625,-0.333984375,0.00341796875,5.126953125,0.42724609375,-2.44140625,4.06,88
2025/07/05 09:42:22.949,17.1,0.933802051930913,0.10665157596397,76.4500132137171,0.0702822806488297,1.07952146526434,0.217815630734474,0.363700844571401,0,0,0,0,0, ,-0.94775390625,-0.34326171875,0.00634765625,4.82177734375,-0.6103515625,-2.5634765625,4.06,88
2025/07/05 09:42:23.049,17.2,0.937833641156786,0.107454223621153,76.5790210782059,0.0400402534200675,1.04412790661996,0.202125241523286,0.328288002977162,0,0,0,0,0, ,-0.947265625,-0.34326171875,0.00390625,1.220703125,-1.0986328125,-0.8544921875,4.06,88
2025/07/05 09:42:23.149,17.3,0.942181207908584,0.108381635592274,76.7155652688712,0.00249314386890553,0.998218862116937,0.178681593818096,0.285044490828882,0,0,0,0,0, ,-0.955078125,-0.32470703125,0.00634765625,1.40380859375,-1.28173828125,-2.13623046875,4.06,88
2025/07/05 09:42:23.249,17.4,0.94655832936678,0.109751471053487,76.8521094595365,-0.0298211615139974,0.95805800422906,0.157934676393192,0.250182456846838,0,0,0,0,0, ,-0.9560546875,-0.32470703125,0.01025390625,7.14111328125,-3.47900390625,0.244140625,4.06,88
2025/07/05 09:42:23.349,17.5,0.950571638866617,0.111309507036946,76.9952685481024,0.0450679058552437,1.05227344183254,0.196906034446567,0.35277784748997,0,0,0,0,0, ,-0.955078125,-0.333984375,0.03515625,8.60595703125,-5.31005859375,-1.64794921875,4.06,88
2025/07/05 09:42:23.449,17.6,0.954506481200872,0.11270835840273,77.1476931353205,0.0930844480267101,1.09868382076281,0.223056721283019,0.41039165281536,0,0,0,0,0, ,-0.95263671875,-0.3505859375,0.03515625,-3.41796875,-3.35693359375,-3.173828125,4.06,88
2025/07/05 09:42:23.549,17.7,0.958215993576566,0.113989377070263,77.3110466842873,0.0930844480267101,1.0959418410256,0.220435489283014,0.39936629018808,0,0,0,0,0, ,-0.9482421875,-0.35888671875,0.0263671875,0.54931640625,-0.79345703125,-2.685546875,4.06,88
2025/07/05 09:42:23.649,17.8,0.96192550595226,0.115358437228533,77.474400233254,0.0930844480267101,1.1041722954363,0.223056721283019,0.407633032096834,0,0,0,0,0, ,-0.92431640625,-0.36181640625,0.00927734375,2.5634765625,-0.06103515625,0.67138671875,4.06,88
2025/07/05 09:42:23.749,17.9,0.965546549661669,0.117120785524993,77.6377537822208,0.0753404499476784,1.07678997110982,0.215197144198854,0.385618687561089,0,0,0,0,0, ,-0.93896484375,-0.34912109375,0.0244140625,-0.732421875,-4.39453125,0.30517578125,4.06,88
2025/07/05 09:42:23.849,18.0,0.96923186100687,0.11904227436161,77.8011073311876,0.0425534477054477,1.03599561977627,0.196906034446567,0.341878660775278,0,0,0,0,0, ,-0.95068359375,-0.3515625,0.03369140625,1.3427734375,-3.60107421875,2.25830078125,4.06,88
2025/07/05 09:42:23.949,18.1,0.972773115029364,0.121341670469663,77.9644608801543,0.0074831641688049,0.992845406548181,0.173486788233409,0.295820356908226,0,0,0,0,0, ,-0.95654296875,-0.32421875,0.0380859375,0.244140625,-1.64794921875,3.2958984375,4.06,88
2025/07/05 09:42:24.049,18.2,0.975882011647189,0.123371702154222,78.1172212087821,-0.0223825289609869,0.955392048460491,0.1501767230517,0.258205994153786,0,0,0,0,0, ,-0.943359375,-0.33740234375,0.03515625,4.0283203125,-1.52587890625,-1.3427734375,4.06,88
2025/07/05 09:42:24.150,18.3,0.978924710002433,0.12526831924379,78.2521082144318,0.0450679058552437,1.0332877941344,0.181281021963722,0.35005082264708,0,0,0,0,0, ,-0.96044921875,-0.35546875,0.03564453125,5.67626953125,-0.732421875,3.11279296875,4.06,88
2025/07/05 09:42:24.250,18.4,0.982169469062563,0.127403910910136,78.3764019997426,0.0905457325999968,1.08772491242939,0.209964281423474,0.418676658730051,0,0,0,0,0, ,-0.93505859375,-0.35205078125,0.0068359375,5.126953125,-0.1220703125,5.9814453125,4.06,88
2025/07/05 09:42:24.350,18.5,0.984787129850205,0.12974292115091,78.5036719755295,0.0854721655228663,1.07133145536518,0.209964281423474,0.404875932536764,0,0,0,0,0, ,-0.9580078125,-0.3486328125,0.0146484375,2.01416015625,-2.86865234375,6.65283203125,4.06,88
2025/07/05 09:42:24.450,18.6,0.987126530615245,0.132335252526395,78.6368943322688,0.077871454772918,1.06043226865049,0.207349902317899,0.396613744054433,0,0,0,0,0, ,-0.96435546875,-0.31640625,0.03369140625,-0.732421875,-6.04248046875,11.3525390625,4.06,88
2025/07/05 09:42:24.550,18.7,0.988644707401304,0.134925311964552,78.7701166890081,0.052618876218868,1.0332877941344,0.194298472496728,0.363700844571401,0,0,0,0,0, ,-0.97802734375,-0.2646484375,0.06640625,-3.173828125,-7.2021484375,10.009765625,4.06,88
2025/07/05 09:42:24.650,18.8,0.990049510518465,0.137268204092493,78.9033390457475,0.0149775446758094,0.974083658735001,0.157934676393192,0.290429520886828,0,0,0,0,0, ,-0.94091796875,-0.2333984375,0.05029296875,8.36181640625,-0.18310546875,5.92041015625,4.06,88
2025/07/05 09:42:24.750,18.9,0.991400199388692,0.139764615572837,79.0365614024868,-0.0397221547007729,0.894464143137809,0.114131253370426,0.204957355363963,0,0,0,0,0, ,-0.96875,-0.21142578125,0.03515625,9.3994140625,-3.47900390625,-0.1220703125,4.06,88
2025/07/05 09:42:24.850,19.0,0.992887716127345,0.141392860006551,79.1697837592261,-0.0520708888746788,0.868203578961813,0.0962054982015315,0.183815675131393,0,0,0,0,0, ,-0.943359375,-0.2548828125,0.044921875,9.6435546875,-5.55419921875,-12.63427734375,4.06,88
2025/07/05 09:42:24.950,19.1,0.993951456769977,0.14273928735599,79.3014652839161,0.0249875578800141,0.947402699343066,0.124403470492429,0.27697780460675,0,0,0,0,0, ,-0.99755859375,-0.4189453125,0.103515625,5.9814453125,-12.6953125,-16.41845703125,4.06,88
2025/07/05 09:42:25.050,19.2,0.994307452326226,0.143887966944934,79.4080582876865,0.0375283217292073,0.931462197237368,0.124403470492429,0.290429520886828,0,0,0,0,0, ,-0.95556640625,-0.306640625,0.13037109375,-3.7841796875,-9.70458984375,2.9296875,4.06,88
2025/07/05 09:42:25.150,19.3,0.992818985043349,0.144705787922207,79.5116751009807,0.0501006188372575,0.966064410944624,0.126974825614924,0.306619497014456,0,0,0,0,0, ,-0.97900390625,-0.25146484375,0.138671875,-3.84521484375,-6.2255859375,-3.41796875,4.06,88
2025/07/05 09:42:25.250,19.4,0.990611286182708,0.145939160698185,79.5835727260222,0.0425534477054477,0.931462197237368,0.098762389039913,0.252855538934292,0,0,0,0,0, ,-0.94921875,-0.357421875,0.09375,3.47900390625,-2.74658203125,-5.67626953125,4.06,88
2025/07/05 09:42:25.350,19.5,0.988144095683994,0.147397704901888,79.6397500467186,0.0199800462691844,0.889200984835519,0.0783437800591997,0.218216445407854,0,0,0,0,0, ,-0.95068359375,-0.3564453125,0.11669921875,-5.67626953125,-4.638671875,-3.7841796875,4.06,88
2025/07/05 09:42:25.450,19.6,0.985520597990019,0.14898225359145,79.6888984185589,0.00498753151130726,0.878691259630266,0.0783437800591997,0.215561813051632,0,0,0,0,0, ,-0.935546875,-0.35693359375,0.1103515625,2.01416015625,-0.48828125,-2.3193359375,4.06,88
2025/07/05 09:42:25.550,19.7,0.982162121696369,0.149332075036122,79.7326142655535,-0.00996016250778498,0.862967976467202,0.0707082480197241,0.197018745717199,0,0,0,0,0, ,-0.93603515625,-0.37646484375,0.09716796875,5.37109375,-5.79833984375,0.48828125,4.06,88
2025/07/05 09:42:25.650,19.8,0.978556036790935,0.149449603764291,79.776330112548,0.0551384025636872,0.950064397529689,0.111566493157485,0.301217011426188,0,0,0,0,0, ,-0.9609375,-0.36328125,0.14501953125,-0.9765625,-6.103515625,0.54931640625,4.06,88
2025/07/05 09:42:25.750,19.9,0.975341424213796,0.150445703551059,79.8200459595425,0.100708337573174,1.00898312876204,0.13985147431171,0.360967857389122,0,0,0,0,0, ,-0.93017578125,-0.326171875,0.13623046875,5.06591796875,-3.2958984375,0.18310546875,4.06,88
2025/07/05 09:42:25.850,20.0,0.972128621390597,0.151403589360944,79.8620188255685,0.10834386961265,1.00898312876204,0.12954750379131,0.336437963910373,0,0,0,0,0, ,-0.95361328125,-0.39990234375,0.15478515625,-2.0751953125,1.28173828125,-2.13623046875,4.06,88
2025/07/05 09:42:25.950,20.1,0.968705315111992,0.153024480050667,79.9039916915945,0.105797396460844,0.998218862116937,0.11669732985759,0.31202782628757,0,0,0,0,0, ,-0.98095703125,-0.31591796875,0.16748046875,-4.39453125,6.40869140625,3.7841796875,4.06,88
2025/07/05 09:42:26.050,20.2,0.965539667476298,0.15500332975052,79.9416504937724,0.0956244531234955,0.992845406548181,0.10900304786909,0.293124212369726,0,0,0,0,0, ,-0.95556640625,-0.36279296875,0.06982421875,9.27734375,14.2822265625,7.4462890625,4.06,88
2025/07/05 09:42:26.150,20.3,0.961611808209945,0.156624002916236,79.9717729697737,0.0702822806488297,0.955392048460491,0.0910956357992094,0.260883370349217,0,0,0,0,0, ,-0.94091796875,-0.34912109375,0.01806640625,-4.8828125,14.16015625,9.27734375,4.06,88
2025/07/05 09:42:26.251,20.4,0.957683948943593,0.158329086406471,80.001895445775,0.022483175195303,0.899732847445657,0.0757973069073943,0.215561813051632,0,0,0,0,0, ,-0.93408203125,-0.29931640625,-0.0078125,-11.962890625,-2.13623046875,25.69580078125,4.06,88
2025/07/05 09:42:26.351,20.5,0.953787645227141,0.159676083456944,80.0181839403856,0.0576591991512352,0.950064397529689,0.10900304786909,0.287736280894161,0,0,0,0,0, ,-0.9716796875,-0.22314453125,0.04248046875,-2.99072265625,-8.36181640625,16.9677734375,4.06,88
2025/07/05 09:42:26.451,20.6,0.949885745237867,0.160919673064113,80.0252069363439,0.10834386961265,1.0035980987041,0.147593411226993,0.374647756279649,0,0,0,0,0,rest_start,-0.9716796875,-0.22314453125,0.04248046875,-2.99072265625,-8.36181640625,16.9677734375,4.06,88
2025/07/05 09:42:26.551,20.7,0.945640731008896,0.162111921181487,80.0213009705535,0.0930844480267101,0.955392048460491,0.119264723970737,0.303917524549083,0,0,0,0,0,,-0.982421875,-0.21337890625,0.09228515625,-11.29150390625,-6.65283203125,8.056640625,4.06,88
2025/07/05 09:42:26.651,20.8,0.941397815957789,0.163255654844988,80.0173950047631,0.0956244531234955,0.95805800422906,0.0962054982015315,0.260883370349217,0,0,0,0,0,,-0.9814453125,-0.2353515625,0.0771484375,-0.732421875,-3.72314453125,0.732421875,4.06,88
2025/07/05 09:42:26.751,20.9,0.936589689968871,0.164168623090609,80.0009104226206,0.0981657492013257,0.952727513398502,0.0834406203838247,0.239504396353845,0,0,0,0,0,,-0.98828125,-0.24365234375,0.08154296875,-5.126953125,-1.40380859375,1.46484375,4.06,88
2025/07/05 09:42:26.851,21.0,0.931729056124412,0.164906203071167,79.984425840478,0.0880083055343772,0.939426095802628,0.0656243635700458,0.199663548701636,0,0,0,0,0,,-1.0205078125,-0.18896484375,0.0478515625,6.28662109375,7.32421875,6.4697265625,4.06,88
2025/07/05 09:42:26.951,21.1,0.927033169681181,0.165553542644539,79.9629760150386,0.0551384025636872,0.894464143137809,0.0453403603942286,0.152269829635138,0,0,0,0,0,,-0.97802734375,-0.1865234375,0.0166015625,15.625,11.71875,2.38037109375,4.06,88
2025/07/05 09:42:27.051,21.2,0.922764063292795,0.165970327163671,79.9415261895991,0.03250824106102,0.855124837720941,0.0352291336410588,0.126132812848852,0,0,0,0,0,,-0.96728515625,-0.189453125,-0.01708984375,10.25390625,9.521484375,2.685546875,4.06,88
2025/07/05 09:42:27.151,21.3,0.918104257070114,0.165750521844843,79.9064384703008,0.0829373112604657,0.902369283006607,0.0732521300005682,0.215561813051632,0,0,0,0,0,,-0.91845703125,-0.2294921875,-0.05810546875,-4.0283203125,-11.04736328125,-8.7890625,4.06,88
2025/07/05 09:42:27.251,21.4,0.913269087393415,0.165388563462614,79.8713507510026,0.0829373112604657,0.88657148179017,0.0910956357992094,0.244840576076443,0,0,0,0,0,,-1.0478515625,-0.23876953125,0.060546875,-16.17431640625,-18.37158203125,-0.732421875,4.06,88
2025/07/05 09:42:27.351,21.5,0.908082720664682,0.164467768485031,79.8332868412281,0.0728107256713555,0.90764632827269,0.0910956357992094,0.24751080306941,0,0,0,0,0,,-0.98486328125,-0.17626953125,0.0576171875,-4.8828125,-4.69970703125,-2.685546875,4.06,88
2025/07/05 09:42:27.451,21.6,0.902509206822403,0.1635415665324,79.7892705505013,0.0652292231945086,0.897097801310628,0.0808915507769985,0.234173905523288,0,0,0,0,0,,-0.97998046875,-0.24609375,0.05615234375,4.82177734375,-1.5869140625,-4.5166015625,4.06,88
2025/07/05 09:42:27.551,21.7,0.897096714907823,0.162717040572889,79.7540261895991,0.0375283217292073,0.868203578961813,0.0732521300005682,0.215561813051632,0,0,0,0,0,,-0.966796875,-0.27783203125,0.03271484375,0.91552734375,-3.60107421875,-5.18798828125,4.06,88
2025/07/05 09:42:27.651,21.8,0.891795470970257,0.162084910670005,79.7291066048556,0.00498753151130726,0.834269750445015,0.0656243635700458,0.186453501584288,0,0,0,0,0,,-0.97900390625,-0.2451171875,0.05615234375,-5.2490234375,-3.84521484375,-2.197265625,4.06,88
2025/07/05 09:42:27.751,21.9,0.886490700377951,0.161418225323684,79.7129589499368,-0.0248633029764003,0.803149318493737,0.0504036518907109,0.152269829635138,0,0,0,0,0,,-0.974609375,-0.2607421875,0.05029296875,3.60107421875,-0.732421875,-1.46484375,4.06,88
2025/07/05 09:42:27.851,22.0,0.881511728325553,0.16131015860275,79.7040303785082,0.0249875578800141,0.873444669510357,0.0783437800591997,0.236838440585277,0,0,0,0,0,,-0.96923828125,-0.26806640625,0.044921875,2.62451171875,0.67138671875,0.18310546875,4.06,88
2025/07/05 09:42:27.951,22.1,0.876928237878456,0.161258077991719,79.6951018070797,0.0601812672629669,0.920863359298311,0.10388009667759,0.303917524549083,0,0,0,0,0,,-0.96630859375,-0.25634765625,0.037109375,3.0517578125,0.79345703125,-0.79345703125,4.06,88
2025/07/05 09:42:28.051,22.2,0.87278039056865,0.161433284159975,79.6921256166035,0.0475836291412688,0.905007109459502,0.0962054982015315,0.28235414913067,0,0,0,0,0,,-0.97021484375,-0.2666015625,0.03125,2.86865234375,0.1220703125,-0.8544921875,4.06,88
2025/07/05 09:42:28.151,22.3,0.870170466317722,0.161392489396514,79.6921256166035,0.0375283217292073,0.894464143137809,0.0910956357992094,0.268924111710331,0,0,0,0,0,,-0.97265625,-0.26220703125,0.03369140625,1.89208984375,0.8544921875,1.3427734375,4.06,88
2025/07/05 09:42:28.251,22.4,0.867828246790001,0.16114577769823,79.6921256166035,0.0174781698469588,0.868203578961813,0.0834406203838247,0.242171774344817,0,0,0,0,0,,-0.96435546875,-0.26025390625,0.02294921875,2.9296875,0,-1.77001953125,4.06,88
2025/07/05 09:42:28.352,22.5,0.865541302654863,0.161032054877625,79.6921256166035,-0.0124471060683793,0.826471464602985,0.0656243635700458,0.199663548701636,0,0,0,0,0,,-0.96875,-0.27783203125,0.02294921875,1.15966796875,-1.3427734375,-0.30517578125,4.06,88
2025/07/05 09:42:28.452,22.6,0.863474379986048,0.161190483609274,79.6921256166035,-0.0496035806945883,0.782509454611142,0.0478713652194682,0.157513668527421,0,0,0,0,0,,-0.98046875,-0.2861328125,0.0283203125,0.3662109375,-0.9765625,2.9296875,4.06,88
2025/07/05 09:42:28.552,22.7,0.861625027963021,0.161895455559827,79.6921256166035,-0.0223825289609869,0.829069542045434,0.0656243635700458,0.207606362008968,0,0,0,0,0,,-0.96435546875,-0.25146484375,0.017578125,-0.30517578125,0.30517578125,5.126953125,4.06,88
2025/07/05 09:42:28.652,22.8,0.860262091038342,0.162836834098866,79.6921256166035,0.0350176513648832,0.902369283006607,0.098762389039913,0.303917524549083,0,0,0,0,0,,-0.9697265625,-0.24951171875,0.01416015625,1.03759765625,-0.91552734375,2.685546875,4.06,88
2025/07/05 09:42:28.752,22.9,0.858714205754593,0.163121086907673,79.6921256166035,0.0274931955799045,0.88657148179017,0.0962054982015315,0.295820356908226,0,0,0,0,0,,-0.97705078125,-0.24560546875,0.0126953125,0.9765625,-1.708984375,0.9765625,4.06,87
2025/07/05 09:42:28.852,23.0,0.857276868793021,0.163614208190027,79.6921256166035,0.0199800462691844,0.873444669510357,0.0910956357992094,0.274291798672967,0,0,0,0,0,,-0.986328125,-0.244140625,0.01611328125,0.3662109375,-0.18310546875,8.36181640625,4.06,87
2025/07/05 09:42:28.952,23.1,0.855865493861882,0.163393982779953,79.6921256166035,0.0074831641688049,0.860352229650812,0.0885426615668261,0.260883370349217,0,0,0,0,0,,-0.97412109375,-0.2275390625,0.01220703125,-0.48828125,-1.5869140625,0.67138671875,4.06,87
2025/07/05 09:42:29.052,23.2,0.85407723865394,0.162682319112854,79.6921256166035,-0.0199005234865925,0.821279356217944,0.0732521300005682,0.212908589362154,0,0,0,0,0,,-0.9599609375,-0.2373046875,0.0126953125,0.244140625,-3.35693359375,-2.86865234375,4.06,87
2025/07/05 09:42:29.152,23.3,0.852649737834243,0.161884743571398,79.6924960898831,-0.0643891999229846,0.764519201597764,0.0504036518907109,0.154891061635143,0,0,0,0,0,,-0.97509765625,-0.25146484375,0.01708984375,0.3662109375,-2.13623046875,1.03759765625,4.06,87
2025/07/05 09:42:29.252,23.4,0.851113952391338,0.160680236217229,79.6953940683664,-0.066849224536198,0.769652672198075,0.0504036518907109,0.157513668527421,0,0,0,0,0,,-0.9794921875,-0.240234375,0.0166015625,0.3662109375,-2.8076171875,0.79345703125,4.06,87
2025/07/05 09:42:29.352,23.5,0.849852688471737,0.159832615727533,79.7164400920886,0.00998004308486067,0.873444669510357,0.0962054982015315,0.274291798672967,0,0,0,0,0,,-0.978515625,-0.23828125,0.0185546875,0.1220703125,-1.5869140625,-0.06103515625,4.06,87
2025/07/05 09:42:29.452,23.6,0.848752737982923,0.15952870220898,79.7462580456353,0.0300000895534498,0.899732847445657,0.114131253370426,0.303917524549083,0,0,0,0,0,,-0.9794921875,-0.234375,0.015625,1.03759765625,-1.89208984375,0.6103515625,4.06,87
2025/07/05 09:42:29.552,23.7,0.848042749579726,0.15926889804873,79.7760759991821,0.0274931955799045,0.897097801310628,0.11669732985759,0.290429520886828,0,0,0,0,0,,-0.9697265625,-0.23291015625,0.01611328125,0.48828125,-1.64794921875,-0.8544921875,4.06,87
2025/07/05 09:42:29.652,23.8,0.847330661998667,0.159101249784615,79.8058939527289,0.022483175195303,0.889200984835519,0.119264723970737,0.27697780460675,0,0,0,0,0,,-0.9716796875,-0.24609375,0.01611328125,1.40380859375,-2.38037109375,-0.42724609375,4.06,87
2025/07/05 09:42:29.752,23.9,0.847320085469339,0.15885157707621,79.8482905226278,0.00249314386890553,0.865585092426192,0.114131253370426,0.24751080306941,0,0,0,0,0,,-0.97119140625,-0.2412109375,0.01806640625,0.79345703125,-1.89208984375,-0.42724609375,4.06,87
2025/07/05 09:42:29.852,24.0,0.847218182440481,0.158351830092951,79.893663283003,-0.0298211615139974,0.83166897019106,0.098762389039913,0.207606362008968,0,0,0,0,0,,-0.97119140625,-0.25048828125,0.01904296875,0.8544921875,-1.64794921875,-1.40380859375,4.06,87
2025/07/05 09:42:29.952,24.1,0.847012093006098,0.157201595067824,79.9515190559479,-0.0520708888746788,0.810911286301701,0.0885426615668261,0.181179239570443,0,0,0,0,0,,-0.97705078125,-0.24853515625,0.0185546875,0.244140625,-1.8310546875,-0.1220703125,4.06,87
2025/07/05 09:42:30.052,24.2,0.846713013843394,0.156919219214691,80.0176980734448,0.022483175195303,0.910286940916846,0.132121506383803,0.287736280894161,0,0,0,0,0,,-0.9755859375,-0.2451171875,0.017578125,0.732421875,-0.9765625,-0.42724609375,4.06,87
2025/07/05 09:42:30.152,24.3,0.846906973168865,0.157372199455101,80.0979835328561,0.0576591991512352,0.95805800422906,0.160523338074362,0.341878660775278,0,0,0,0,0,,-0.97705078125,-0.25048828125,0.013671875,1.03759765625,-1.220703125,-0.54931640625,4.06,87
2025/07/05 09:42:30.252,24.4,0.8472867658225,0.157773479222195,80.1782689922673,0.052618876218868,0.95805800422906,0.163113340683684,0.325574298744744,0,0,0,0,0,,-0.97216796875,-0.25146484375,0.01123046875,1.15966796875,-1.52587890625,-0.9765625,4.06,87
2025/07/05 09:42:30.352,24.5,0.848465557000843,0.158313396417286,80.2660722209514,0.0501006188372575,0.960725382220031,0.165704685611081,0.31473418625919,0,0,0,0,0,,-0.97412109375,-0.2548828125,0.00830078125,1.52587890625,-2.3193359375,-1.220703125,4.06,87
2025/07/05 09:42:30.452,24.6,0.850353346712408,0.158559066429243,80.3613932189083,0.0300000895534498,0.942083549984501,0.157934676393192,0.287736280894161,0,0,0,0,0,,-0.9794921875,-0.25927734375,0.0166015625,0.18310546875,-2.44140625,-0.9765625,4.06,87
2025/07/05 09:42:30.553,24.7,0.852419527148198,0.158511550879378,80.4521135884867,-0.00498256137444919,0.902369283006607,0.13985147431171,0.242171774344817,0,0,0,0,0,,-0.9765625,-0.26904296875,0.017578125,1.40380859375,-2.0751953125,2.197265625,4.06,87
2025/07/05 09:42:30.653,24.8,0.854699456077024,0.158112874359261,80.5366804833523,-0.0124471060683793,0.905007109459502,0.134696834756728,0.236838440585277,0,0,0,0,0,,-0.9765625,-0.26904296875,0.017578125,1.40380859375,-2.0751953125,2.197265625,4.06,87
2025/07/05 09:42:30.753,24.9,0.857019776526738,0.15813516674094,80.6124754483933,0.0627046081822784,1.00898312876204,0.181281021963722,0.347325284326392,0,0,0,0,0,,-0.9677734375,-0.2529296875,0.01953125,0.732421875,-1.64794921875,0.732421875,4.06,87
2025/07/05 09:42:30.853,25.0,0.859564633506992,0.158125051517335,80.681051329944,0.0829373112604657,1.0332877941344,0.196906034446567,0.36917130455418,0,0,0,0,0,,-0.97119140625,-0.259765625,0.015625,1.5869140625,-1.52587890625,0.1220703125,4.06,87
2025/07/05 09:42:30.953,25.1,0.862082799358552,0.15843391814618,80.7529736793215,0.0753404499476784,1.02787653827561,0.191692269713982,0.35005082264708,0,0,0,0,0,,-0.9736328125,-0.26220703125,0.01806640625,0.18310546875,-2.44140625,-0.244140625,4.06,87
2025/07/05 09:42:31.053,25.2,0.864292814764926,0.15879087183098,80.836585099418,0.0677551135869461,1.0224711324243,0.18908742468216,0.336437963910373,0,0,0,0,0,,-0.98095703125,-0.26123046875,0.0244140625,0.1220703125,-0.1220703125,3.84521484375,4.06,87
2025/07/05 09:42:31.153,25.3,0.866964499351982,0.158604679379842,80.9285391224065,0.0450679058552437,0.998218862116937,0.176083516375646,0.306619497014456,0,0,0,0,0,,-0.96484375,-0.24560546875,0.01171875,1.5869140625,-0.48828125,1.46484375,4.06,87
2025/07/05 09:42:31.253,25.4,0.869813225192894,0.158019470005136,81.020493145395,0,0.939426095802628,0.147593411226993,0.244840576076443,0,0,0,0,0,,-0.97314453125,-0.24755859375,0.00830078125,0.244140625,-0.244140625,0.06103515625,4.06,87
2025/07/05 09:42:31.353,25.5,0.873181166894133,0.157162146169593,81.1124471683835,0.012478169504798,0.95805800422906,0.152761370266398,0.263562180981467,0,0,0,0,0,,-0.97607421875,-0.25439453125,0.00634765625,0.8544921875,-1.0986328125,0.732421875,4.06,87
2025/07/05 09:42:31.453,25.6,0.876605967671546,0.156910289153065,81.204401191372,0.0854721655228663,1.05771118018851,0.199514956981884,0.377388233150388,0,0,0,0,0,,-0.9716796875,-0.24072265625,0.00048828125,0.67138671875,-1.40380859375,0.30517578125,4.06,87
2025/07/05 09:42:31.553,25.7,0.880289082861022,0.157125591530163,81.2992500519761,0.0956244531234955,1.06860443052229,0.209964281423474,0.391113193526643,0,0,0,0,0,,-0.97314453125,-0.25048828125,-0.001953125,0.67138671875,-1.89208984375,-1.03759765625,4.06,87
2025/07/05 09:42:31.653,25.8,0.883756909301357,0.157115101498334,81.3969937501957,0.0854721655228663,1.06043226865049,0.204736889493603,0.374647756279649,0,0,0,0,0,,-0.97705078125,-0.25634765625,-0.001953125,0.67138671875,-1.5869140625,-0.18310546875,4.06,87
2025/07/05 09:42:31.753,25.9,0.887139376545924,0.156833922362484,81.4947374484153,0.0753404499476784,1.04955678872279,0.199514956981884,0.358236363234604,0,0,0,0,0,,-0.96484375,-0.25634765625,0.001953125,-0.244140625,-2.3193359375,-0.67138671875,4.06,87
2025/07/05 09:42:31.853,26.0,0.890384529841155,0.155911996585425,81.6016855225705,0.0501006188372575,1.01437396478344,0.186483935987308,0.320151304801531,0,0,0,0,0,,-0.9765625,-0.26416015625,0.00830078125,-0.30517578125,-2.9296875,-0.30517578125,4.06,87
2025/07/05 09:42:31.953,26.1,0.893964518714947,0.154759475307907,81.7198710372334,0.012478169504798,0.968736064722052,0.165704685611081,0.274291798672967,0,0,0,0,0,,-0.970703125,-0.2568359375,0.00634765625,0.244140625,-2.25830078125,-1.15966796875,4.06,87
2025/07/05 09:42:32.053,26.2,0.897528349175131,0.153645000086401,81.8400896164684,0.012478169504798,0.968736064722052,0.163113340683684,0.274291798672967,0,0,0,0,0,,-0.970703125,-0.263671875,0.0068359375,-0.8544921875,-2.74658203125,-0.79345703125,4.06,87
2025/07/05 09:42:32.153,26.3,0.901596748693889,0.153545019448807,81.9599377224237,0.0880083055343772,1.07133145536518,0.212580028239864,0.396613744054433,0,0,0,0,0,,-0.97509765625,-0.2568359375,0.01025390625,0.1220703125,-2.74658203125,0.06103515625,4.06,87
2025/07/05 09:42:32.253,26.4,0.905906193981178,0.154415281911307,82.0772583231754,0.113440709937275,1.1041722954363,0.236183533562831,0.435287969442412,0,0,0,0,0,,-0.97119140625,-0.259765625,0.00634765625,0.67138671875,-2.197265625,0.1220703125,4.06,87
2025/07/05 09:42:32.353,26.5,0.909995527094165,0.155011731491483,82.1836499621784,0.110891640330448,1.10142730501573,0.236183533562831,0.424207632662966,0,0,0,0,0,,-0.97119140625,-0.2705078125,0.0068359375,0.3662109375,-2.5634765625,-1.0986328125,4.06,87
2025/07/05 09:42:32.453,26.6,0.913982569364299,0.154937113278701,82.2863027458464,0.103252219554018,1.09320136415486,0.236183533562831,0.413151796371787,0,0,0,0,0,,-0.97021484375,-0.26708984375,0.009765625,-0.06103515625,-2.62451171875,-0.18310546875,4.06,87
2025/07/05 09:42:32.553,26.7,0.918041002767939,0.154585814484393,82.3990216784934,0.0804037414441607,1.06587889220161,0.225679328175297,0.382873697140514,0,0,0,0,0,,-0.96923828125,-0.26953125,0.013671875,0.6103515625,-2.5634765625,0.06103515625,4.06,87
2025/07/05 09:42:32.654,26.8,0.922087040099037,0.153960992472667,82.5167736856299,0.0475836291412688,1.02787653827561,0.204736889493603,0.341878660775278,0,0,0,0,0,,-0.970703125,-0.265625,0.01171875,0.42724609375,-2.01416015625,0.42724609375,4.06,87
2025/07/05 09:42:32.754,26.9,0.926115115357586,0.153287015892015,82.6345256927664,0.0074831641688049,0.976759602029,0.181281021963722,0.290429520886828,0,0,0,0,0,,-0.97021484375,-0.2685546875,0.01220703125,0.3662109375,-2.685546875,0.3662109375,4.06,87
2025/07/05 09:42:32.854,27.0,0.930278566121794,0.153187168458767,82.7493015094267,0.0350176513648832,1.01437396478344,0.194298472496728,0.331003180847574,0,0,0,0,0,,-0.9716796875,-0.26708984375,0.01123046875,0.18310546875,-2.01416015625,0.1220703125,4.06,87
2025/07/05 09:42:32.954,27.1,0.934514180427683,0.154450111451928,82.8581054296931,0.10834386961265,1.10966680140186,0.244076194910471,0.446392915540856,0,0,0,0,0,,-0.96875,-0.2666015625,0.0087890625,0.6103515625,-1.5869140625,-0.06103515625,4.06,87
2025/07/05 09:42:33.054,27.2,0.938626109085164,0.155100006774529,82.9585861054074,0.121095725352659,1.12067396033369,0.257258380045352,0.460308871992452,0,0,0,0,0,,-0.96728515625,-0.2666015625,0.00732421875,0.48828125,-2.01416015625,-0.48828125,4.06,87
2025/07/05 09:42:33.154,27.3,0.942840278150801,0.155799761197366,83.0552851153663,0.118542751120276,1.11516735192965,0.257258380045352,0.449173010094268,0,0,0,0,0,,-0.97119140625,-0.27685546875,0.009765625,0.79345703125,-2.13623046875,-0.9765625,4.06,87
2025/07/05 09:42:33.254,27.4,0.946911055107471,0.15631820885797,83.1519841253252,0.105797396460844,1.10142730501573,0.251981334779269,0.432515582387466,0,0,0,0,0,,-0.96923828125,-0.27783203125,0.0126953125,-0.06103515625,-2.50244140625,0.1220703125,4.06,87
2025/07/05 09:42:33.354,27.5,0.950765981035769,0.156194295896346,83.2427112388902,0.0804037414441607,1.06860443052229,0.238813036608181,0.396613744054433,0,0,0,0,0,,-0.9677734375,-0.275390625,0.013671875,0.3662109375,-2.197265625,0.42724609375,4.06,87
2025/07/05 09:42:33.454,27.6,0.954370438842158,0.156042774979307,83.3259205831824,0.0475836291412688,1.03058143416278,0.217815630734474,0.35550636047746,0,0,0,0,0,,-0.9677734375,-0.2705078125,0.01513671875,0.30517578125,-2.13623046875,-0.1220703125,4.06,87
2025/07/05 09:42:33.554,27.7,0.957762249184938,0.156088613852371,83.4049586260285,0.0074831641688049,0.976759602029,0.191692269713982,0.301217011426188,0,0,0,0,0,,-0.96923828125,-0.275390625,0.01220703125,0.8544921875,-2.3193359375,0.48828125,4.06,87
2025/07/05 09:42:33.654,27.8,0.96077692856473,0.156668491557273,83.4798253674286,0.0074831641688049,0.982115788856681,0.18908742468216,0.3093229304004,0,0,0,0,0,,-0.97265625,-0.2744140625,0.01416015625,0.54931640625,-1.5869140625,0.1220703125,4.06,87
2025/07/05 09:42:33.754,27.9,0.963868472610645,0.157898772259641,83.5546921088287,0.0905457325999968,1.08772491242939,0.238813036608181,0.432515582387466,0,0,0,0,0,,-0.97021484375,-0.27392578125,0.01171875,1.28173828125,-1.0986328125,0,4.06,87
2025/07/05 09:42:33.854,28.0,0.966747943320002,0.159534263602483,83.6280129773498,0.113440709937275,1.10691879367921,0.259898992689508,0.465886117328672,0,0,0,0,0,,-0.96630859375,-0.27880859375,0.0078125,1.15966796875,-1.89208984375,-0.06103515625,4.06,87
2025/07/05 09:42:33.954,28.1,0.969692428165492,0.160493680054843,83.6964415051653,0.110891640330448,1.09868382076281,0.259898992689508,0.45195465129285,0,0,0,0,0,,-0.966796875,-0.27734375,0.01025390625,0.9765625,-2.50244140625,-0.30517578125,4.06,87
2025/07/05 09:42:34.054,28.2,0.972620602225602,0.161177722671961,83.7531809622619,0.100708337573174,1.08772491242939,0.254619161232164,0.435287969442412,0,0,0,0,0,,-0.97021484375,-0.27783203125,0.013671875,0.9765625,-2.3193359375,-0.06103515625,4.06,87
2025/07/05 09:42:34.154,28.3,0.974773187552714,0.162106647944328,83.8015778164663,0.0753404499476784,1.05499157178559,0.238813036608181,0.39936629018808,0,0,0,0,0,,-0.96240234375,-0.27978515625,0.01513671875,0.54931640625,-2.62451171875,0.06103515625,4.06,87
2025/07/05 09:42:34.254,28.4,0.976507789073907,0.162753122606648,83.8499746706708,0.0400402534200675,1.01707156394545,0.217815630734474,0.35550636047746,0,0,0,0,0,,-0.96826171875,-0.2822265625,0.01904296875,0.1220703125,-2.44140625,0.1220703125,4.06,87
2025/07/05 09:42:34.354,28.5,0.977865123339275,0.1633848959097,83.8983715248753,0.00249314386890553,0.968736064722052,0.191692269713982,0.301217011426188,0,0,0,0,0,,-0.9638671875,-0.2822265625,0.0166015625,0.9765625,-2.25830078125,-0.3662109375,4.06,87
2025/07/05 09:42:34.454,28.6,0.978819339264639,0.163594080255324,83.9467683790798,-0.0223825289609869,0.942083549984501,0.173486788233409,0.27160723489009,0,0,0,0,0,,-0.96923828125,-0.28271484375,0.01904296875,-0.06103515625,-1.8310546875,-0.06103515625,4.06,87
2025/07/05 09:42:34.554,28.7,0.97985639080687,0.163751964157693,83.9922703956687,0.0551384025636872,1.03870491267675,0.215197144198854,0.380130212887598,0,0,0,0,0,,-0.96484375,-0.2822265625,0.0146484375,0.8544921875,-0.79345703125,0.1220703125,4.06,87
2025/07/05 09:42:34.654,28.8,0.980924853048858,0.164379620604057,84.0298445001525,0.0930844480267101,1.08225445244662,0.244076194910471,0.438061894576248,0,0,0,0,0,,-0.9638671875,-0.27978515625,0.0107421875,1.40380859375,-1.03759765625,-0.42724609375,4.06,87
2025/07/05 09:42:34.754,28.9,0.98171195950295,0.164729550764245,84.0573524556574,0.0905457325999968,1.06860443052229,0.244076194910471,0.424207632662966,0,0,0,0,0,,-0.962890625,-0.28369140625,0.0068359375,1.220703125,-1.15966796875,-0.30517578125,4.06,87
2025/07/05 09:42:34.855,29.0,0.982455926658588,0.165169930391341,84.0706229607371,0.0854721655228663,1.05771118018851,0.238813036608181,0.41039165281536,0,0,0,0,0,,-0.962890625,-0.28369140625,0.0068359375,1.220703125,-1.15966796875,-0.30517578125,4.06,87
2025/07/05 09:42:34.955,29.1,0.983066961017735,0.16573636756217,84.0726560253093,0.0627046081822784,1.03058143416278,0.225679328175297,0.380130212887598,0,0,0,0,0,,-0.962890625,-0.28955078125,0.00830078125,0.42724609375,-2.25830078125,-1.03759765625,4.06,87
2025/07/05 09:42:35.055,29.2,0.98363394491583,0.166612402852377,84.0726560253093,0.0300000895534498,0.995531412481964,0.207349902317899,0.339157572313292,0,0,0,0,0,,-0.966796875,-0.29736328125,0.013671875,-0.54931640625,-2.38037109375,-0.42724609375,4.06,87
2025/07/05 09:42:35.155,29.3,0.983867022539216,0.166782986575123,84.0706229607371,-0.00249190133515409,0.952727513398502,0.183881802217677,0.295820356908226,0,0,0,0,0,,-0.96875,-0.291015625,0.01123046875,0.30517578125,-1.708984375,0.54931640625,4.06,87
2025/07/05 09:42:35.255,29.4,0.983775672557331,0.166164428794017,84.0615237571034,-0.0223825289609869,0.931462197237368,0.168297374248637,0.268924111710331,0,0,0,0,0,,-0.96142578125,-0.29443359375,0.01025390625,0.79345703125,-2.01416015625,0.8544921875,4.06,87
2025/07/05 09:42:35.355,29.5,0.983788974931941,0.165768334624531,84.0403253399185,0.052618876218868,1.02517310488967,0.207349902317899,0.366435326414507,0,0,0,0,0,,-0.9599609375,-0.2861328125,0.01171875,0,-2.8076171875,0.48828125,4.06,87
2025/07/05 09:42:35.455,29.6,0.983720426731575,0.165240404199728,84.0070277091826,0.0880083055343772,1.05771118018851,0.228303311402927,0.41039165281536,0,0,0,0,0,,-0.96240234375,-0.28076171875,0.0126953125,0.42724609375,-2.50244140625,0.79345703125,4.06,87
2025/07/05 09:42:35.555,29.7,0.983152425652604,0.164989138420882,83.9590409978103,0.0829373112604657,1.04141567442679,0.220435489283014,0.391113193526643,0,0,0,0,0,,-0.96435546875,-0.2890625,0.01416015625,0.06103515625,-2.13623046875,-0.6103515625,4.06,87
2025/07/05 09:42:35.655,29.8,0.982545786916095,0.164957349586123,83.8976786090565,0.077871454772918,1.0332877941344,0.215197144198854,0.377388233150388,0,0,0,0,0,,-0.9619140625,-0.29736328125,0.01513671875,-0.244140625,-2.86865234375,-0.48828125,4.06,87
2025/07/05 09:42:35.755,29.9,0.982123461217939,0.165188034133886,83.829250081241,0.0551384025636872,1.00628988876938,0.202125241523286,0.347325284326392,0,0,0,0,0,,-0.96435546875,-0.29345703125,0.02001953125,-0.30517578125,-2.8076171875,0.06103515625,4.06,87
2025/07/05 09:42:35.855,30.0,0.981422422134351,0.165048456899266,83.7496380950032,0.0249875578800141,0.968736064722052,0.183881802217677,0.306619497014456,0,0,0,0,0,,-0.9638671875,-0.29345703125,0.021484375,0.48828125,-2.50244140625,-0.42724609375,4.06,87
2025/07/05 09:42:35.955,30.1,0.980595822715864,0.163978117366245,83.6567911651675,-0.014932813266229,0.91821715657685,0.160523338074362,0.258205994153786,0,0,0,0,0,,-0.9638671875,-0.2919921875,0.01953125,0.30517578125,-1.28173828125,-0.6103515625,4.06,87
2025/07/05 09:42:36.055,30.2,0.979331609798545,0.162645368348108,83.5600921552086,-0.0223825289609869,0.915572353592414,0.1501767230517,0.250182456846838,0,0,0,0,0,,-0.9609375,-0.30029296875,0.017578125,0.8544921875,-1.89208984375,-0.1220703125,4.06,87
2025/07/05 09:42:36.155,30.3,0.978342828713088,0.16180765122914,83.4633931452497,0.0627046081822784,1.02517310488967,0.196906034446567,0.374647756279649,0,0,0,0,0,,-0.96142578125,-0.29833984375,0.02001953125,0.3662109375,-2.01416015625,0.30517578125,4.06,87
2025/07/05 09:42:36.255,30.4,0.977458231144382,0.161251244178205,83.3666941352908,0.0956244531234955,1.05499157178559,0.220435489283014,0.42144138090472,0,0,0,0,0,,-0.9619140625,-0.29443359375,0.01611328125,0.732421875,-1.953125,0.18310546875,4.06,87
2025/07/05 09:42:36.355,30.5,0.976453814517547,0.161250321402417,83.268449252453,0.0981657492013257,1.04684161085238,0.220435489283014,0.41039165281536,0,0,0,0,0,,-0.96142578125,-0.29443359375,0.0146484375,0.732421875,-1.3427734375,0,4.06,87
2025/07/05 09:42:36.455,30.6,0.975523964454769,0.161578963524024,83.1702043696151,0.0930844480267101,1.04141567442679,0.220435489283014,0.39936629018808,0,0,0,0,0,,-0.9599609375,-0.3037109375,0.01220703125,0.732421875,-2.01416015625,-0.30517578125,4.06,87
2025/07/05 09:42:36.555,30.7,0.9744017234915,0.16222650485408,83.0719446503343,0.0702822806488297,1.01167782024494,0.207349902317899,0.36917130455418,0,0,0,0,0,,-0.962890625,-0.30126953125,0.0166015625,0.18310546875,-2.50244140625,0.1220703125,4.06,87
2025/07/05 09:42:36.655,30.8,0.973217160227645,0.162592736116105,82.9570532783923,0.0375283217292073,0.974083658735001,0.18908742468216,0.325574298744744,0,0,0,0,0,,-0.9638671875,-0.29931640625,0.0205078125,0.30517578125,-2.38037109375,-0.06103515625,4.06,87
2025/07/05 09:42:36.755,30.9,0.97155297156366,0.16188021763185,82.8255154173463,0.0074831641688049,0.939426095802628,0.165704685611081,0.28235414913067,0,0,0,0,0,,-0.95654296875,-0.29736328125,0.01806640625,0.3662109375,-1.708984375,-0.732421875,4.06,87
2025/07/05 09:42:36.855,31.0,0.969764962575063,0.160657054480415,82.6945811750789,-0.0124471060683793,0.91821715657685,0.1501767230517,0.252855538934292,0,0,0,0,0,,-0.96240234375,-0.30810546875,0.02197265625,0.3662109375,-2.5634765625,-0.6103515625,4.06,87
2025/07/05 09:42:36.956,31.1,0.968328269777932,0.160159809991047,82.559240424738,0.0702822806488297,1.02517310488967,0.194298472496728,0.366435326414507,0,0,0,0,0,,-0.95751953125,-0.302734375,0.02099609375,0.6103515625,-2.44140625,-0.244140625,4.06,87
2025/07/05 09:42:37.056,31.2,0.967088034674533,0.159581915502411,82.418889547545,0.115991079758188,1.08225445244662,0.225679328175297,0.435287969442412,0,0,0,0,0,,-0.96142578125,-0.30517578125,0.02001953125,1.03759765625,-1.89208984375,-0.06103515625,4.06,87
2025/07/05 09:42:37.156,31.3,0.965718737703423,0.159356855565447,82.2785386703521,0.121095725352659,1.08225445244662,0.23092867241126,0.429744731706692,0,0,0,0,0,,-0.9580078125,-0.306640625,0.0185546875,0.732421875,-1.64794921875,0.06103515625,4.06,87
2025/07/05 09:42:37.256,31.4,0.964641575032171,0.159730159600701,82.131898484983,0.123650003786495,1.08498893428972,0.233555412647924,0.42144138090472,0,0,0,0,0,,-0.9580078125,-0.30908203125,0.0185546875,0.3662109375,-2.197265625,0.18310546875,4.06,87
2025/07/05 09:42:37.356,31.5,0.963651127095196,0.16034690363436,81.9726796832617,0.105797396460844,1.06587889220161,0.225679328175297,0.393862712389163,0,0,0,0,0,,-0.96044921875,-0.3076171875,0.02099609375,0.30517578125,-2.3193359375,0,4.06,87
2025/07/05 09:42:37.456,31.6,0.962920389362934,0.160724617684526,81.8071715733643,0.0753404499476784,1.0332877941344,0.207349902317899,0.35550636047746,0,0,0,0,0,,-0.958984375,-0.3056640625,0.02294921875,0.48828125,-2.0751953125,0.3662109375,4.06,87
2025/07/05 09:42:37.556,31.7,0.962080731637544,0.160681708956932,81.624794599552,0.0425534477054477,0.998218862116937,0.18908742468216,0.31473418625919,0,0,0,0,0,,-0.958984375,-0.3056640625,0.02099609375,-0.30517578125,-2.5634765625,0.06103515625,4.06,87
2025/07/05 09:42:37.656,31.8,0.961105370416594,0.160115667502234,81.4289558702537,0.00249314386890553,0.952727513398502,0.163113340683684,0.266242427588394,0,0,0,0,0,,-0.95703125,-0.3115234375,0.02197265625,0.91552734375,-2.44140625,-0.18310546875,4.06,87
2025/07/05 09:42:37.756,31.9,0.960357509561051,0.159775811181317,81.2339973091542,0.00998004308486067,0.971409146809506,0.165704685611081,0.28235414913067,0,0,0,0,0,,-0.962890625,-0.31396484375,0.02294921875,0.06103515625,-1.953125,-0.1220703125,4.06,87
2025/07/05 09:42:37.856,32.0,0.959920348739108,0.159782157471578,81.0349153838145,0.0981657492013257,1.08772491242939,0.220435489283014,0.41039165281536,0,0,0,0,0,,-0.95458984375,-0.30810546875,0.01904296875,0.48828125,-1.46484375,0.3662109375,4.06,87
2025/07/05 09:42:37.956,32.1,0.959728994950003,0.160501080962478,80.8248749546759,0.123650003786495,1.11516735192965,0.241443923238465,0.446392915540856,0,0,0,0,0,,-0.951171875,-0.3134765625,0.015625,-0.1220703125,-2.62451171875,-0.06103515625,4.06,87
2025/07/05 09:42:38.056,32.2,0.959607775998211,0.161190648977158,80.604646437763,0.123650003786495,1.11516735192965,0.244076194910471,0.438061894576248,0,0,0,0,0,,-0.9599609375,-0.30908203125,0.0234375,-0.91552734375,-3.173828125,0,4.06,87
2025/07/05 09:42:38.156,32.3,0.959514948309956,0.162115911465733,80.373896057613,0.115991079758188,1.10966680140186,0.244076194910471,0.429744731706692,0,0,0,0,0,,-0.95751953125,-0.3095703125,0.0263671875,0.732421875,-2.3193359375,0.06103515625,4.06,87
2025/07/05 09:42:38.256,32.4,0.959828935772932,0.162955468906312,80.138482896701,0.0956244531234955,1.08772491242939,0.23092867241126,0.39936629018808,0,0,0,0,0,,-0.95556640625,-0.31298828125,0.02685546875,0.48828125,-2.13623046875,-0.1220703125,4.06,87
2025/07/05 09:42:38.356,32.5,0.96022484112083,0.162966852594812,79.9151689493401,0.0652292231945086,1.05499157178559,0.215197144198854,0.360967857389122,0,0,0,0,0,,-0.95654296875,-0.31494140625,0.02734375,-0.732421875,-3.23486328125,-0.79345703125,4.06,87
2025/07/05 09:42:38.456,32.6,0.960731832317554,0.163055478606384,79.6989211410409,0.03250824106102,1.0224711324243,0.194298472496728,0.32286206655158,0,0,0,0,0,,-0.9619140625,-0.30908203125,0.02880859375,-0.18310546875,-1.77001953125,-0.48828125,4.06,87
2025/07/05 09:42:38.556,32.7,0.961656959296723,0.16304836069204,79.4872962643989,-0.00747198135392635,0.974083658735001,0.170891407990606,0.274291798672967,0,0,0,0,0,,-0.95361328125,-0.32373046875,0.02880859375,0.67138671875,-1.89208984375,0,4.06,87
2025/07/05 09:42:38.656,32.8,0.962633120005972,0.163095289051027,79.284013990649,0.012478169504798,1.0035980987041,0.176083516375646,0.303917524549083,0,0,0,0,0,,-0.9541015625,-0.31787109375,0.02734375,0.79345703125,-1.708984375,0.18310546875,4.06,87
2025/07/05 09:42:38.756,32.9,0.963404609844394,0.16380139925931,79.0666114152828,0.0956244531234955,1.10966680140186,0.225679328175297,0.42144138090472,0,0,0,0,0,,-0.95361328125,-0.31591796875,0.02294921875,0.8544921875,-1.8310546875,0.30517578125,4.06,87
2025/07/05 09:42:38.856,33.0,0.964778561389524,0.164887046999329,78.839205857661,0.113440709937275,1.12342954041198,0.238813036608181,0.446392915540856,0,0,0,0,0,,-0.9541015625,-0.310546875,0.0244140625,0,-1.64794921875,0.244140625,4.06,87
2025/07/05 09:42:38.956,33.1,0.966227569257944,0.166340246294459,78.6234893707581,0.110891640330448,1.12067396033369,0.238813036608181,0.435287969442412,0,0,0,0,0,,-0.95654296875,-0.3193359375,0.0263671875,0.8544921875,-2.01416015625,-0.3662109375,4.06,87
2025/07/05 09:42:39.057,33.2,0.96803962406114,0.167944611842898,78.4116249639784,0.105797396460844,1.10966680140186,0.233555412647924,0.424207632662966,0,0,0,0,0,,-0.95654296875,-0.3193359375,0.0263671875,0.8544921875,-2.01416015625,-0.3662109375,4.06,87
2025/07/05 09:42:39.157,33.3,0.969210381651671,0.168482198343463,78.1997605571987,0.0804037414441607,1.08225445244662,0.217815630734474,0.391113193526643,0,0,0,0,0,,-0.9541015625,-0.32080078125,0.0283203125,0.3662109375,-2.197265625,0.06103515625,4.06,87
2025/07/05 09:42:39.257,33.4,0.97019554599434,0.168273203962287,77.9878961504191,0.052618876218868,1.04412790661996,0.199514956981884,0.35277784748997,0,0,0,0,0,,-0.9521484375,-0.31884765625,0.0263671875,0.54931640625,-2.01416015625,-0.3662109375,4.06,87
2025/07/05 09:42:39.357,33.5,0.971453461083251,0.16813731812216,77.7555399403607,0.0199800462691844,1.00628988876938,0.181281021963722,0.31202782628757,0,0,0,0,0,,-0.95556640625,-0.32666015625,0.0263671875,0.48828125,-2.0751953125,0,4.06,87
2025/07/05 09:42:39.457,33.6,0.972711376172162,0.168001432282033,77.5026919270237,-0.0174172853300156,0.960725382220031,0.155347354252408,0.263562180981467,0,0,0,0,0,,-0.94873046875,-0.318359375,0.02587890625,0.54931640625,-1.64794921875,-0.244140625,4.06,87
2025/07/05 09:42:39.557,33.7,0.974202971257163,0.167871707887159,77.2498587501297,-0.00498256137444919,0.976759602029,0.157934676393192,0.28235414913067,0,0,0,0,0,,-0.953125,-0.3271484375,0.02880859375,0.06103515625,-1.8310546875,0.18310546875,4.06,87
2025/07/05 09:42:39.657,33.8,0.975968088391342,0.16875626286293,77.0136572258968,0.0753404499476784,1.07952146526434,0.202125241523286,0.39936629018808,0,0,0,0,0,,-0.95263671875,-0.3251953125,0.02587890625,0.6103515625,-2.44140625,-0.54931640625,4.06,87
2025/07/05 09:42:39.757,33.9,0.977976474678853,0.169873297359286,76.794102190768,0.0956244531234955,1.09320136415486,0.212580028239864,0.424207632662966,0,0,0,0,0,,-0.958984375,-0.32275390625,0.02587890625,1.03759765625,-2.01416015625,0.3662109375,4.06,87
2025/07/05 09:42:39.857,34.0,0.979984860966364,0.170990331855643,76.5754894097394,0.0956244531234955,1.08498893428972,0.212580028239864,0.415913464448344,0,0,0,0,0,,-0.951171875,-0.322265625,0.0234375,0.1220703125,-1.8310546875,0.18310546875,4.06,87
2025/07/05 09:42:39.957,34.1,0.981551081065059,0.171600368786445,76.3628290096632,0.0880083055343772,1.07405996835267,0.207349902317899,0.404875932536764,0,0,0,0,0,,-0.953125,-0.32666015625,0.0263671875,0.30517578125,-2.197265625,-0.6103515625,4.06,87
2025/07/05 09:42:40.057,34.2,0.982681690287538,0.171964012979461,76.1551787364392,0.0652292231945086,1.04412790661996,0.194298472496728,0.371908780628853,0,0,0,0,0,,-0.95654296875,-0.33544921875,0.0283203125,0.244140625,-2.44140625,-0.06103515625,4.06,87
2025/07/05 09:42:40.157,34.3,0.983801451340632,0.171799362904442,75.9475284632151,0.0375283217292073,1.00898312876204,0.178681593818096,0.336437963910373,0,0,0,0,0,,-0.94970703125,-0.32763671875,0.02734375,0.6103515625,-2.13623046875,0.732421875,4.06,87
2025/07/05 09:42:40.257,34.4,0.984586975337588,0.171666280353399,75.7461674981672,0.0074831641688049,0.971409146809506,0.160523338074362,0.295820356908226,0,0,0,0,0,,-0.95166015625,-0.322265625,0.02880859375,0.06103515625,-2.197265625,0.30517578125,4.06,87
2025/07/05 09:42:40.357,34.5,0.985372499334544,0.171668247901432,75.5573851494714,-0.0322982484735017,0.920863359298311,0.134696834756728,0.24751080306941,0,0,0,0,0,,-0.94580078125,-0.32568359375,0.02587890625,0.91552734375,-2.38037109375,0,4.06,87
2025/07/05 09:42:40.457,34.6,0.985997754701722,0.171909245432958,75.3748921089518,-0.014932813266229,0.947402699343066,0.13985147431171,0.27160723489009,0,0,0,0,0,,-0.953125,-0.32421875,0.02783203125,0.06103515625,-2.0751953125,-0.06103515625,4.06,87
2025/07/05 09:42:40.557,34.7,0.986750204906111,0.17293682312716,75.2078299110644,0.0677551135869461,1.04684161085238,0.181281021963722,0.385618687561089,0,0,0,0,0,,-0.9619140625,-0.33349609375,0.03076171875,0.42724609375,-1.5869140625,0.18310546875,4.06,87
2025/07/05 09:42:40.657,34.8,0.9875026551105,0.174007837534408,75.0578245218698,0.0829373112604657,1.06043226865049,0.191692269713982,0.407633032096834,0,0,0,0,0,,-0.9521484375,-0.3349609375,0.02734375,1.220703125,-2.0751953125,0.8544921875,4.06,87
2025/07/05 09:42:40.757,34.9,0.988255105314888,0.175078851941657,74.9170051134552,0.0829373112604657,1.05499157178559,0.191692269713982,0.39936629018808,0,0,0,0,0,,-0.94970703125,-0.3232421875,0.02783203125,0.67138671875,-2.25830078125,0.48828125,4.06,87
2025/07/05 09:42:40.857,35.0,0.988703417932859,0.17598726648525,74.7853421437705,0.0753404499476784,1.04141567442679,0.186483935987308,0.382873697140514,0,0,0,0,0,,-0.9521484375,-0.32470703125,0.02880859375,0.1220703125,-2.3193359375,0.42724609375,4.06,87
2025/07/05 09:42:40.957,35.1,0.988554671204065,0.176051557147715,74.6462449218009,0.052618876218868,1.01167782024494,0.173486788233409,0.35005082264708,0,0,0,0,0,,-0.95263671875,-0.32275390625,0.0322265625,0.3662109375,-1.953125,0.06103515625,4.06,87
2025/07/05 09:42:41.057,35.2,0.988327063738612,0.175654571427044,74.4989430315219,0.0249875578800141,0.974083658735001,0.155347354252408,0.3093229304004,0,0,0,0,0,,-0.95263671875,-0.3291015625,0.03125,0.79345703125,-2.0751953125,-0.3662109375,4.06,87
2025/07/05 09:42:41.157,35.3,0.987681236472811,0.175108306076935,74.3614152014213,-0.00747198135392635,0.936770053283068,0.137273490276515,0.268924111710331,0,0,0,0,0,,-0.955078125,-0.32958984375,0.0302734375,0.244140625,-2.13623046875,-0.244140625,4.06,87
2025/07/05 09:42:41.258,35.4,0.986820260515725,0.174832063167648,74.2328354235137,-0.0471350543914264,0.889200984835519,0.11669732985759,0.223529942109287,0,0,0,0,0,,-0.94921875,-0.333984375,0.0302734375,0.79345703125,-1.8310546875,-0.1220703125,4.06,87
2025/07/05 09:42:41.358,35.5,0.98576031824468,0.17492936477542,74.104255645606,-0.0124471060683793,0.936770053283068,0.12954750379131,0.27160723489009,0,0,0,0,0,,-0.955078125,-0.33544921875,0.02880859375,0.30517578125,-1.953125,-0.1220703125,4.06,87
2025/07/05 09:42:41.458,35.6,0.984844867613173,0.175902020533388,73.9756758676984,0.0627046081822784,1.03058143416278,0.170891407990606,0.377388233150388,0,0,0,0,0,,-0.94482421875,-0.32568359375,0.025390625,0.3662109375,-1.77001953125,0.30517578125,4.06,87
2025/07/05 09:42:41.558,35.7,0.983929416981667,0.176874676291357,73.8470960897907,0.0753404499476784,1.03870491267675,0.181281021963722,0.388365185803998,0,0,0,0,0,,-0.94873046875,-0.33544921875,0.02587890625,0.1220703125,-2.38037109375,-0.244140625,4.06,87
2025/07/05 09:42:41.658,35.8,0.98301396635016,0.177847332049326,73.7185163118831,0.0804037414441607,1.04141567442679,0.186483935987308,0.385618687561089,0,0,0,0,0,,-0.951171875,-0.33837890625,0.03125,0,-2.8076171875,-0.06103515625,4.06,87
2025/07/05 09:42:41.758,35.9,0.98205954720674,0.178170960949798,73.6111229746534,0.0753404499476784,1.03599561977627,0.18908742468216,0.377388233150388,0,0,0,0,0,,-0.9482421875,-0.33447265625,0.03564453125,0,-2.50244140625,-0.06103515625,4.06,87
2025/07/05 09:42:41.858,36.0,0.980592465214538,0.17802969059253,73.5249160781017,0.052618876218868,1.01167782024494,0.181281021963722,0.35005082264708,0,0,0,0,0,,-0.94921875,-0.33740234375,0.03662109375,0.244140625,-2.25830078125,0.18310546875,4.06,87
2025/07/05 09:42:41.958,36.1,0.979096114819963,0.17743143028924,73.4182533077919,0.0274931955799045,0.984796035463608,0.168297374248637,0.317442011901053,0,0,0,0,0,,-0.9560546875,-0.33349609375,0.03759765625,-0.06103515625,-1.89208984375,-0.06103515625,4.06,87
2025/07/05 09:42:42.058,36.2,0.977599764425388,0.176833169985951,73.2911346637241,-0.00747198135392635,0.944742417330059,0.1501767230517,0.27160723489009,0,0,0,0,0,,-0.94580078125,-0.34130859375,0.03076171875,0.91552734375,-1.5869140625,0.1220703125,4.06,87
2025/07/05 09:42:42.158,36.3,0.976306607985412,0.176521828777684,73.1640160196563,0.0174781698469588,0.982115788856681,0.163113340683684,0.3093229304004,0,0,0,0,0,,-0.94384765625,-0.333984375,0.03125,0.244140625,-1.64794921875,0,4.06,87
2025/07/05 09:42:42.258,36.4,0.975228653158963,0.177458467942029,73.0368973755885,0.0956244531234955,1.08498893428972,0.212580028239864,0.418676658730051,0,0,0,0,0,,-0.94921875,-0.33740234375,0.0283203125,0.79345703125,-1.52587890625,0,4.06,87
2025/07/05 09:42:42.358,36.5,0.974148190732389,0.178552700759913,72.9302705347994,0.113440709937275,1.10691879367921,0.23092867241126,0.443614365913646,0,0,0,0,0,,-0.9462890625,-0.33984375,0.02734375,0.67138671875,-1.52587890625,1.220703125,4.06,87
2025/07/05 09:42:42.458,36.6,0.972992522251624,0.17969739258425,72.844135497289,0.115991079758188,1.11241632026438,0.238813036608181,0.440837359496526,0,0,0,0,0,,-0.94677734375,-0.3388671875,0.02783203125,0.30517578125,-2.38037109375,0.18310546875,4.06,87
2025/07/05 09:42:42.558,36.7,0.971797644941752,0.180711977696612,72.7382264484791,0.110891640330448,1.11241632026438,0.241443923238465,0.429744731706692,0,0,0,0,0,,-0.95068359375,-0.33642578125,0.0302734375,0.1220703125,-2.5634765625,-0.06103515625,4.06,87
2025/07/05 09:42:42.658,36.8,0.971033315146357,0.180741909577043,72.6125433883698,0.0854721655228663,1.09046238850407,0.228303311402927,0.396613744054433,0,0,0,0,0,,-0.94775390625,-0.3369140625,0.03173828125,0.48828125,-2.38037109375,0.3662109375,4.06,87
2025/07/05 09:42:42.758,36.9,0.970967612147567,0.179973840191339,72.4868603282605,0.0551384025636872,1.05771118018851,0.212580028239864,0.358236363234604,0,0,0,0,0,,-0.9482421875,-0.333984375,0.03369140625,0.1220703125,-2.5634765625,0.06103515625,4.06,87
2025/07/05 09:42:42.858,37.0,0.970901909148776,0.179205770805634,72.3611772681513,0.0199800462691844,1.0197706193014,0.191692269713982,0.317442011901053,0,0,0,0,0,,-0.9482421875,-0.34423828125,0.03271484375,1.15966796875,-2.3193359375,0.1220703125,4.06,87
2025/07/05 09:42:42.958,37.1,0.970972780884884,0.178350532654564,72.235494208042,-0.00498256137444919,0.995531412481964,0.176083516375646,0.287736280894161,0,0,0,0,0,,-0.95068359375,-0.341796875,0.0322265625,0.06103515625,-1.89208984375,0.54931640625,4.06,87
2025/07/05 09:42:43.058,37.2,0.971589789309764,0.178376911672386,72.1098111479327,0.0753404499476784,1.1041722954363,0.220435489283014,0.39936629018808,0,0,0,0,0,,-0.9482421875,-0.33642578125,0.03271484375,0.48828125,-1.28173828125,0.48828125,4.06,87
2025/07/05 09:42:43.158,37.3,0.972308628500889,0.179017427498918,71.9841280878234,0.133880186231039,1.18165032489417,0.262541000637635,0.482655277570949,0,0,0,0,0,,-0.9482421875,-0.33642578125,0.03271484375,0.48828125,-1.28173828125,0.48828125,4.06,87
2025/07/05 09:42:43.258,37.4,0.973381525047621,0.179635957298949,71.8584450277141,0.14669741941104,1.19281727520983,0.273123015011838,0.491060995312214,0,0,0,0,0,,-0.94873046875,-0.337890625,0.0302734375,0.8544921875,-1.89208984375,0.54931640625,4.06,87
2025/07/05 09:42:43.359,37.5,0.974546047037439,0.180079757226603,71.7327619676048,0.14669741941104,1.19841011687295,0.275772021656844,0.482655277570949,0,0,0,0,0,,-0.947265625,-0.33447265625,0.029296875,0.54931640625,-2.13623046875,-0.18310546875,4.06,87
2025/07/05 09:42:43.459,37.6,0.975710569027257,0.180479709043753,71.6070789074955,0.131320677638933,1.18165032489417,0.267829208349512,0.463096717018951,0,0,0,0,0,,-0.94775390625,-0.3408203125,0.03173828125,0.30517578125,-2.197265625,-0.30517578125,4.06,87
2025/07/05 09:42:43.559,37.7,0.977523221195246,0.179881527143329,71.4828338686689,0.105797396460844,1.15384157731763,0.251981334779269,0.426975415698212,0,0,0,0,0,,-0.947265625,-0.34375,0.033203125,0.244140625,-2.38037109375,-0.18310546875,4.06,87
2025/07/05 09:42:43.659,37.8,0.979825689372416,0.17915237350911,71.3540744701727,0.0753404499476784,1.12342954041198,0.233555412647924,0.388365185803998,0,0,0,0,0,,-0.9501953125,-0.341796875,0.0341796875,0.6103515625,-1.953125,0.18310546875,4.06,87
2025/07/05 09:42:43.759,37.9,0.982128157549586,0.178423219874891,71.2193626907241,0.0425534477054477,1.08772491242939,0.212580028239864,0.35005082264708,0,0,0,0,0,,-0.9462890625,-0.34521484375,0.03076171875,0.48828125,-2.0751953125,0.3662109375,4.06,87
2025/07/05 09:42:43.859,38.0,0.984521058000516,0.177653010518904,71.0846509112755,0.00249314386890553,1.03599561977627,0.186483935987308,0.301217011426188,0,0,0,0,0,,-0.94921875,-0.33544921875,0.0341796875,-0.06103515625,-1.52587890625,-0.244140625,4.06,87
2025/07/05 09:42:43.959,38.1,0.987202522601561,0.177299810034987,70.9647214273329,-0.00249190133515409,1.03058143416278,0.178681593818096,0.298517956070232,0,0,0,0,0,,-0.9453125,-0.3466796875,0.03564453125,0.1220703125,-2.25830078125,-0.244140625,4.06,87
2025/07/05 09:42:44.059,38.2,0.99017008739257,0.177868038026042,70.8530029952135,0.0905457325999968,1.15106919026268,0.228303311402927,0.426975415698212,0,0,0,0,0,,-0.94140625,-0.34375,0.0341796875,0.3662109375,-1.89208984375,0.18310546875,4.06,87
2025/07/05 09:42:44.159,38.3,0.993510297286544,0.178585545646534,70.7374941870418,0.131320677638933,1.19561291404447,0.254619161232164,0.485455613642746,0,0,0,0,0,,-0.9482421875,-0.33935546875,0.0322265625,0.732421875,-2.01416015625,0.67138671875,4.06,87
2025/07/05 09:42:44.259,38.4,0.996850507180517,0.179216786869993,70.6217746486537,0.13900313742254,1.19561291404447,0.259898992689508,0.485455613642746,0,0,0,0,0,,-0.94873046875,-0.3427734375,0.03466796875,-0.06103515625,-2.0751953125,-0.06103515625,4.06,87
2025/07/05 09:42:44.359,38.5,1.00019071707449,0.179848028093453,70.5030635124185,0.141566582710935,1.19841011687295,0.262541000637635,0.485455613642746,0,0,0,0,0,,-0.94580078125,-0.34375,0.03271484375,0.67138671875,-2.38037109375,0.244140625,4.06,87
2025/07/05 09:42:44.459,38.6,1.00321791488304,0.179603915166716,70.3807573229766,0.126205587754981,1.17607618839099,0.251981334779269,0.460308871992452,0,0,0,0,0,,-0.9462890625,-0.341796875,0.03564453125,0.06103515625,-2.38037109375,0.244140625,4.06,87
2025/07/05 09:42:44.559,38.7,1.00609915386409,0.179574667028943,70.2512610271211,0.100708337573174,1.13999498877993,0.233555412647924,0.42144138090472,0,0,0,0,0,,-0.947265625,-0.34130859375,0.03564453125,0.42724609375,-2.01416015625,0.1220703125,4.06,87
2025/07/05 09:42:44.659,38.8,1.00898039284513,0.17963295391192,70.1217647312655,0.0702822806488297,1.10142730501573,0.212580028239864,0.380130212887598,0,0,0,0,0,,-0.9462890625,-0.34619140625,0.03759765625,0.54931640625,-2.01416015625,0.1220703125,4.06,87
2025/07/05 09:42:44.759,38.9,1.01186163182618,0.179691240794897,69.9886733822032,0.0375283217292073,1.06043226865049,0.191692269713982,0.339157572313292,0,0,0,0,0,,-0.9501953125,-0.3408203125,0.033203125,0.1220703125,-1.77001953125,-0.244140625,4.06,87
2025/07/05 09:42:44.859,39.0,1.01488983550647,0.180205151186263,69.8550393836003,0.00498753151130726,1.0197706193014,0.170891407990606,0.301217011426188,0,0,0,0,0,,-0.94873046875,-0.35400390625,0.0361328125,0.30517578125,-2.8076171875,-0.30517578125,4.06,87
2025/07/05 09:42:44.959,39.1,1.01794730758913,0.181176051523649,69.7377235560079,0.0677551135869461,1.09868382076281,0.202125241523286,0.391113193526643,0,0,0,0,0,,-0.94189453125,-0.34326171875,0.037109375,0.732421875,-2.25830078125,0.6103515625,4.06,87
2025/07/05 09:42:45.059,39.2,1.0207344332343,0.182571172429941,69.6217450296937,0.128762478593363,1.17050825916806,0.236183533562831,0.485455613642746,0,0,0,0,0,,-0.94384765625,-0.3388671875,0.0341796875,0.54931640625,-1.64794921875,0.79345703125,4.06,87
2025/07/05 09:42:45.159,39.3,1.02352155887947,0.183966293336233,69.5057665033794,0.13900313742254,1.17050825916806,0.241443923238465,0.488257518969918,0,0,0,0,0,,-0.94580078125,-0.345703125,0.03564453125,0.18310546875,-1.953125,0,4.06,87
2025/07/05 09:42:45.259,39.4,1.0259934466667,0.184578704683621,69.3742644577921,0.141566582710935,1.16216797378886,0.241443923238465,0.479856508997736,0,0,0,0,0,,-0.94873046875,-0.3466796875,0.03955078125,0.42724609375,-2.197265625,0.3662109375,4.06,87
2025/07/05 09:42:45.359,39.5,1.02820757012044,0.184908652755506,69.2427624122047,0.128762478593363,1.14829833958191,0.236183533562831,0.463096717018951,0,0,0,0,0,,-0.947265625,-0.34521484375,0.0380859375,0.6103515625,-1.953125,0.1220703125,4.06,87
2025/07/05 09:42:45.459,39.6,1.03028485302241,0.184897519687506,69.1112603666173,0.105797396460844,1.11516735192965,0.223056721283019,0.429744731706692,0,0,0,0,0,,-0.9453125,-0.34423828125,0.03466796875,0.6103515625,-1.46484375,0.42724609375,4.06,87
2025/07/05 09:42:45.560,39.7,1.03213916473742,0.184860613281981,68.9995323323294,0.077871454772918,1.07952146526434,0.204736889493603,0.391113193526643,0,0,0,0,0,,-0.94287109375,-0.345703125,0.03369140625,0.30517578125,-1.953125,0.30517578125,4.06,87
2025/07/05 09:42:45.660,39.8,1.0333060044518,0.185206109784879,68.9075783093408,0.0450679058552437,1.03870491267675,0.186483935987308,0.35005082264708,0,0,0,0,0,,-0.94677734375,-0.34228515625,0.03564453125,0.244140625,-1.708984375,-0.30517578125,4.06,87
2025/07/05 09:42:45.760,39.9,1.03377421736959,0.186262347512336,68.8156242863523,0.00998004308486067,0.992845406548181,0.163113340683684,0.306619497014456,0,0,0,0,0,,-0.94384765625,-0.3515625,0.03759765625,0.244140625,-2.197265625,-0.1220703125,4.06,87
2025/07/05 09:42:45.860,40.0,1.03424243028737,0.187318585239793,68.7141728934047,0.0627046081822784,1.06315483878337,0.18908742468216,0.380130212887598,0,0,0,0,0,,-0.94091796875,-0.34716796875,0.03759765625,0.54931640625,-2.197265625,0.1220703125,4.06,87
2025/07/05 09:42:45.960,40.1,1.03454751508616,0.189181774660299,68.6222188704162,0.126205587754981,1.13723026660527,0.228303311402927,0.47705930616926,0,0,0,0,0,,-0.9462890625,-0.33984375,0.037109375,0.79345703125,-2.0751953125,0.48828125,4.06,87
2025/07/05 09:42:46.060,40.2,1.03464344720276,0.190490389648967,68.5302648474277,0.13900313742254,1.13999498877993,0.238813036608181,0.488257518969918,0,0,0,0,0,,-0.9453125,-0.341796875,0.037109375,0.1220703125,-1.64794921875,-0.06103515625,4.06,87
2025/07/05 09:42:46.160,40.3,1.03471167011515,0.191693344112425,68.4383108244392,0.141566582710935,1.13446707232356,0.238813036608181,0.482655277570949,0,0,0,0,0,,-0.94384765625,-0.3486328125,0.0361328125,0.732421875,-1.77001953125,-0.3662109375,4.06,87
2025/07/05 09:42:46.260,40.4,1.0344842864904,0.192886717078411,68.3463568014507,0.131320677638933,1.11791989806329,0.236183533562831,0.465886117328672,0,0,0,0,0,,-0.9453125,-0.35302734375,0.03759765625,0.244140625,-2.13623046875,-0.06103515625,4.06,87
2025/07/05 09:42:46.360,40.5,1.03395972296437,0.193789253705818,68.2544027784622,0.10834386961265,1.08772491242939,0.223056721283019,0.432515582387466,0,0,0,0,0,,-0.9423828125,-0.34716796875,0.0361328125,0.67138671875,-1.89208984375,-0.06103515625,4.06,87
2025/07/05 09:42:46.460,40.6,1.03326428891086,0.194445235632278,68.1529513855146,0.0804037414441607,1.05499157178559,0.207349902317899,0.396613744054433,0,0,0,0,0,,-0.9453125,-0.35205078125,0.0341796875,0.42724609375,-1.77001953125,0.244140625,4.06,87
2025/07/05 09:42:46.560,40.7,1.03152075273395,0.195322996351226,68.0420026226079,0.0475836291412688,1.01707156394545,0.18908742468216,0.358236363234604,0,0,0,0,0,,-0.939453125,-0.3486328125,0.0341796875,0.8544921875,-2.0751953125,0,4.06,87
2025/07/05 09:42:46.660,40.8,1.02928740054787,0.196288292090924,67.9370062406536,0.0174781698469588,0.979436978224431,0.170891407990606,0.320151304801531,0,0,0,0,0,,-0.9453125,-0.35205078125,0.037109375,0.06103515625,-2.01416015625,-0.06103515625,4.06,87
2025/07/05 09:42:46.760,40.9,1.02705404836178,0.197483219643305,67.8379622396517,0.0804037414441607,1.06315483878337,0.204736889493603,0.41039165281536,0,0,0,0,0,,-0.953125,-0.35205078125,0.0380859375,0.244140625,-1.953125,0.30517578125,4.06,87
2025/07/05 09:42:46.860,41.0,1.02497008305852,0.199253831452823,67.7389182386497,0.133880186231039,1.12618663997205,0.241443923238465,0.499480868071795,0,0,0,0,0,,-0.94189453125,-0.3505859375,0.0341796875,1.15966796875,-1.953125,0.06103515625,4.06,87
2025/07/05 09:42:46.960,41.1,1.02280086625718,0.200893106226343,67.6529820681846,0.141566582710935,1.12342954041198,0.249344899218319,0.505102004049439,0,0,0,0,0,,-0.94384765625,-0.3515625,0.03271484375,1.03759765625,-1.64794921875,-0.6103515625,4.06,87
2025/07/05 09:42:47.060,41.2,1.02042441000255,0.202072228908027,67.5772276019801,0.144131342923876,1.12342954041198,0.251981334779269,0.502290646131405,0,0,0,0,0,,-0.94189453125,-0.3564453125,0.03369140625,0.18310546875,-1.89208984375,-0.1220703125,4.06,87
2025/07/05 09:42:47.160,41.3,1.01781882703746,0.203251351589711,67.4985470094994,0.131320677638933,1.1041722954363,0.246709853083289,0.485455613642746,0,0,0,0,0,,-0.94287109375,-0.35595703125,0.03564453125,0.18310546875,-2.13623046875,0.06103515625,4.06,87
2025/07/05 09:42:47.260,41.4,1.0151398188007,0.204195724499404,67.4228580148659,0.10834386961265,1.07678997110982,0.233555412647924,0.449173010094268,0,0,0,0,0,,-0.94091796875,-0.357421875,0.03515625,0.67138671875,-2.01416015625,0.54931640625,4.06,87
2025/07/05 09:42:47.360,41.5,1.01251697813931,0.204904719151311,67.3500794439772,0.0804037414441607,1.04412790661996,0.217815630734474,0.413151796371787,0,0,0,0,0,,-0.94091796875,-0.357421875,0.03515625,0.67138671875,-2.01416015625,0.54931640625,4.06,87
2025/07/05 09:42:47.460,41.6,1.00989413747793,0.205613713803218,67.2808147521931,0.0450679058552437,1.0035980987041,0.199514956981884,0.36917130455418,0,0,0,0,0,,-0.94677734375,-0.349609375,0.03515625,0.18310546875,-1.708984375,0.244140625,4.06,87
2025/07/05 09:42:47.560,41.7,1.00741725564404,0.206107843666161,67.2187401668226,0.0350176513648832,0.995531412481964,0.191692269713982,0.360967857389122,0,0,0,0,0,,-0.9404296875,-0.36328125,0.037109375,0.30517578125,-2.197265625,0.244140625,4.06,87
2025/07/05 09:42:47.661,41.8,1.00497869219942,0.207273431957839,67.1567467555543,0.110891640330448,1.0959418410256,0.236183533562831,0.47705930616926,0,0,0,0,0,,-0.939453125,-0.35302734375,0.03564453125,0.91552734375,-1.64794921875,0.79345703125,4.06,87
2025/07/05 09:42:47.761,41.9,1.00261355402647,0.208912255132149,67.107926941554,0.14669741941104,1.131705404247,0.262541000637635,0.533302868010519,0,0,0,0,0,,-0.94091796875,-0.34765625,0.03076171875,1.220703125,-1.46484375,0.9765625,4.06,87
2025/07/05 09:42:47.861,42.0,1.00024841585353,0.210463312809046,67.0691471470535,0.149264813524187,1.12618663997205,0.262541000637635,0.527649956243324,0,0,0,0,0,,-0.94287109375,-0.34912109375,0.03076171875,0.06103515625,-2.0751953125,0.54931640625,4.06,87
2025/07/05 09:42:47.961,42.1,0.997883277680578,0.212014370485943,67.0345050553005,0.14669741941104,1.12342954041198,0.262541000637635,0.519182553837833,0,0,0,0,0,,-0.94189453125,-0.34716796875,0.03369140625,0.54931640625,-2.25830078125,0.42724609375,4.06,87
2025/07/05 09:42:48.061,42.2,0.995827987602845,0.213141207593934,67.0094841660683,0.126205587754981,1.10142730501573,0.251981334779269,0.488257518969918,0,0,0,0,0,,-0.9443359375,-0.3544921875,0.037109375,0.732421875,-2.38037109375,-0.06103515625,4.06,87
2025/07/05 09:42:48.161,42.3,0.99365977059572,0.213885133988101,66.9748847327747,0.0956244531234955,1.06860443052229,0.236183533562831,0.45195465129285,0,0,0,0,0,,-0.94189453125,-0.35400390625,0.03759765625,0.42724609375,-2.13623046875,0.42724609375,4.06,87
2025/07/05 09:42:48.261,42.4,0.991706122943275,0.214629060382269,66.9557276446521,0.0677551135869461,1.04141567442679,0.220435489283014,0.415913464448344,0,0,0,0,0,,-0.94482421875,-0.353515625,0.03662109375,0.30517578125,-2.0751953125,0.3662109375,4.06,87
2025/07/05 09:42:48.361,42.5,0.989983635860946,0.215372986776436,66.9365705565295,0.0300000895534498,0.998218862116937,0.199514956981884,0.36917130455418,0,0,0,0,0,,-0.9404296875,-0.353515625,0.03466796875,0.8544921875,-2.01416015625,-0.1220703125,4.06,87
2025/07/05 09:42:48.461,42.6,0.988473195384586,0.216407535304035,66.9127053704785,0.0375283217292073,1.01167782024494,0.199514956981884,0.382873697140514,0,0,0,0,0,,-0.9404296875,-0.35400390625,0.03466796875,0.732421875,-2.0751953125,0.244140625,4.06,87
2025/07/05 09:42:48.561,42.7,0.987390011199236,0.217983655581495,66.8935482823559,0.118542751120276,1.11791989806329,0.249344899218319,0.505102004049439,0,0,0,0,0,,-0.9462890625,-0.3603515625,0.04248046875,0.30517578125,-2.38037109375,0.42724609375,4.06,87
2025/07/05 09:42:48.661,42.8,0.986463620244987,0.219633138490913,66.8743911942333,0.14669741941104,1.14552902357343,0.270475411070973,0.547463171798106,0,0,0,0,0,,-0.94287109375,-0.34765625,0.03515625,0.9765625,-1.52587890625,1.0986328125,4.06,87
2025/07/05 09:42:48.761,42.9,0.985537229290738,0.22128262140033,66.8553152802129,0.149264813524187,1.14552902357343,0.273123015011838,0.538962178094606,0,0,0,0,0,,-0.94140625,-0.3466796875,0.03271484375,0.244140625,-1.77001953125,-0.18310546875,4.06,87
2025/07/05 09:42:48.861,43.0,0.98461083833649,0.222932104309748,66.8457367361516,0.14669741941104,1.13723026660527,0.273123015011838,0.530475613241666,0,0,0,0,0,,-0.9443359375,-0.35205078125,0.03515625,0.06103515625,-2.25830078125,-0.06103515625,4.06,87
2025/07/05 09:42:48.961,43.1,0.983844292798482,0.223727779560815,66.8266608221312,0.123650003786495,1.11516735192965,0.265184405365075,0.502290646131405,0,0,0,0,0,,-0.9404296875,-0.35107421875,0.03564453125,0.48828125,-2.01416015625,-0.3662109375,4.06,87
2025/07/05 09:42:49.061,43.2,0.983316466561751,0.224194538710544,66.8075037340085,0.0956244531234955,1.08772491242939,0.249344899218319,0.465886117328672,0,0,0,0,0,,-0.94189453125,-0.36083984375,0.03515625,0.6103515625,-1.708984375,-0.48828125,4.06,87
2025/07/05 09:42:49.161,43.3,0.982834693563049,0.224661297860273,66.788346645886,0.0627046081822784,1.04955678872279,0.23092867241126,0.426975415698212,0,0,0,0,0,,-0.9423828125,-0.359375,0.0341796875,0,-1.64794921875,-0.6103515625,4.06,87
2025/07/05 09:42:49.261,43.4,0.982628706802019,0.225128057010002,66.7691895577633,0.0350176513648832,1.0224711324243,0.217815630734474,0.396613744054433,0,0,0,0,0,,-0.939453125,-0.3623046875,0.03564453125,0.3662109375,-2.01416015625,0.1220703125,4.06,87
2025/07/05 09:42:49.361,43.5,0.982958519050343,0.226398276400595,66.7409328527825,0.103252219554018,1.11516735192965,0.257258380045352,0.496672668095987,0,0,0,0,0,,-0.9404296875,-0.35888671875,0.03564453125,0.67138671875,-1.89208984375,0.54931640625,4.06,87
2025/07/05 09:42:49.461,43.6,0.983165114524497,0.227835395766086,66.7221735177608,0.156974915168374,1.17886247986767,0.29435446910272,0.581612421849335,0,0,0,0,0,,-0.94140625,-0.3515625,0.03125,0.6103515625,-1.8310546875,0.30517578125,4.06,87
2025/07/05 09:42:49.561,43.7,0.983497082110854,0.229475124767687,66.7220111695563,0.162121595937253,1.17886247986767,0.302339565171164,0.581612421849335,0,0,0,0,0,,-0.94287109375,-0.3544921875,0.03515625,0.06103515625,-1.708984375,-0.244140625,4.06,87
2025/07/05 09:42:49.661,43.8,0.983829049697211,0.23107072703694,66.7218488213519,0.15954759334476,1.17329144873366,0.302339565171164,0.575904658757474,0,0,0,0,0,,-0.94091796875,-0.36328125,0.03369140625,0.42724609375,-2.0751953125,-0.1220703125,4.06,87
2025/07/05 09:42:49.761,43.9,0.984203785225021,0.23243669749351,66.7216864731475,0.144131342923876,1.15939096737174,0.297014751115727,0.55597864349958,0,0,0,0,0,,-0.9404296875,-0.3623046875,0.03564453125,0.30517578125,-2.3193359375,0,4.06,87
2025/07/05 09:42:49.862,44.0,0.984756583975902,0.232862025074751,66.721524124943,0.113440709937275,1.12618663997205,0.283727472699508,0.519182553837833,0,0,0,0,0,,-0.94140625,-0.3603515625,0.03515625,0.6103515625,-2.0751953125,0.54931640625,4.06,87
2025/07/05 09:42:49.962,44.1,0.98573459729539,0.233325056724734,66.7118644067795,0.0829373112604657,1.09320136415486,0.265184405365075,0.479856508997736,0,0,0,0,0,,-0.94287109375,-0.36181640625,0.03515625,-0.06103515625,-2.3193359375,0.3662109375,4.06,87
2025/07/05 09:42:50.062,44.2,0.986712610614879,0.233788088374716,66.702204688616,0.0425534477054477,1.04412790661996,0.244076194910471,0.429744731706692,0,0,0,0,0,,-0.93896484375,-0.36279296875,0.03466796875,0.91552734375,-2.197265625,0.48828125,4.06,87
2025/07/05 09:42:50.162,44.3,0.987919750644817,0.234251120024699,66.7020423404116,0.0475836291412688,1.06043226865049,0.246709853083289,0.446392915540856,0,0,0,0,0,,-0.94189453125,-0.3583984375,0.03369140625,0.1220703125,-1.8310546875,0.48828125,4.06,87
2025/07/05 09:42:50.262,44.4,0.989469568569045,0.235451166641105,66.7019611663093,0.131320677638933,1.17050825916806,0.297014751115727,0.570203403948771,0,0,0,0,0,,-0.935546875,-0.35693359375,0.03125,0.42724609375,-1.28173828125,0.18310546875,4.06,87
2025/07/05 09:42:50.362,44.5,0.991190402021388,0.237515484376876,66.70675043834,0.156974915168374,1.19281727520983,0.321021198582168,0.610249384010925,0,0,0,0,0,,-0.94091796875,-0.36279296875,0.03369140625,0.54931640625,-1.89208984375,-0.67138671875,4.06,87
2025/07/05 09:42:50.462,44.6,0.992911235473732,0.239535464079097,66.7205002838473,0.15954759334476,1.19281727520983,0.326371653801662,0.610249384010925,0,0,0,0,0,,-0.9375,-0.3671875,0.033203125,0.8544921875,-2.13623046875,0.18310546875,4.06,87
2025/07/05 09:42:50.562,44.7,0.994632068926075,0.241555443781317,66.7390394013853,0.154403560045878,1.18443972520389,0.326371653801662,0.601641060635519,0,0,0,0,0,,-0.935546875,-0.365234375,0.03173828125,0.42724609375,-2.5634765625,0.1220703125,4.06,87
2025/07/05 09:42:50.662,44.8,0.996296549131959,0.242768960176836,66.7574973448211,0.131320677638933,1.15661550245146,0.315676462717286,0.567355212515734,0,0,0,0,0,,-0.939453125,-0.36572265625,0.03466796875,0.3662109375,-2.38037109375,0.42724609375,4.06,87
2025/07/05 09:42:50.762,44.9,0.997632198071205,0.243037096902117,66.7663767441956,0.100708337573174,1.12342954041198,0.297014751115727,0.527649956243324,0,0,0,0,0,,-0.939453125,-0.35986328125,0.03466796875,0.1220703125,-2.3193359375,1.0986328125,4.06,87
2025/07/05 09:42:50.862,45.0,0.999134101557186,0.243392999124812,66.765758773611,0.0652292231945086,1.08498893428972,0.278422432493087,0.485455613642746,0,0,0,0,0,,-0.93603515625,-0.3603515625,0.03662109375,0.6103515625,-2.25830078125,-0.3662109375,4.06,87
2025/07/05 09:42:50.962,45.1,1.00063600504317,0.243748901347508,66.765758773611,0.0249875578800141,1.03599561977627,0.251981334779269,0.432515582387466,0,0,0,0,0,,-0.94189453125,-0.3671875,0.041015625,0.3662109375,-2.13623046875,-0.06103515625,4.06,87
2025/07/05 09:42:51.062,45.2,1.00209840687142,0.244104803570203,66.7752561435701,0.077871454772918,1.10691879367921,0.28107424901003,0.513545574745289,0,0,0,0,0,,-0.9404296875,-0.36474609375,0.0400390625,0.30517578125,-2.13623046875,0.42724609375,4.06,87
2025/07/05 09:42:51.162,45.3,1.00394817527391,0.245241812108454,66.7943320575905,0.141566582710935,1.18723068253312,0.323695710507662,0.613122121766189,0,0,0,0,0,,-0.9404296875,-0.365234375,0.0380859375,1.3427734375,-1.708984375,0,4.06,87
2025/07/05 09:42:51.262,45.4,1.0057838050941,0.24650267413371,66.8134891457131,0.149264813524187,1.18723068253312,0.33440808723627,0.618872553596689,0,0,0,0,0,,-0.93798828125,-0.36083984375,0.033203125,0.8544921875,-1.46484375,-0.48828125,4.06,87
2025/07/05 09:42:51.362,45.5,1.00757294490913,0.247718960960207,66.8326462338357,0.14669741941104,1.18165032489417,0.33440808723627,0.610249384010925,0,0,0,0,0,,-0.93798828125,-0.37060546875,0.0341796875,0.3662109375,-1.77001953125,-0.42724609375,4.06,87
2025/07/05 09:42:51.462,45.6,1.00921179464086,0.248792022316745,66.8565114198867,0.133880186231039,1.16494652341607,0.329049029997093,0.593047532437915,0,0,0,0,0,,-0.93701171875,-0.37255859375,0.03515625,0.42724609375,-2.197265625,-0.54931640625,4.06,87
2025/07/05 09:42:51.562,45.7,1.010599595941,0.248992400032377,66.8756685080093,0.105797396460844,1.131705404247,0.313006235724319,0.553138541221858,0,0,0,0,0,,-0.93701171875,-0.37255859375,0.03515625,0.42724609375,-2.197265625,-0.54931640625,4.06,87
2025/07/05 09:42:51.662,45.8,1.01183343504802,0.248637970392433,66.8951588371831,0.0728107256713555,1.0959418410256,0.29435446910272,0.513545574745289,0,0,0,0,0,,-0.93896484375,-0.37158203125,0.0361328125,0.3662109375,-2.38037109375,0.06103515625,4.06,87
2025/07/05 09:42:51.762,45.9,1.01317270975616,0.248092805761072,66.924398603265,0.03250824106102,1.04955678872279,0.267829208349512,0.463096717018951,0,0,0,0,0,,-0.931640625,-0.373046875,0.03662109375,0.6103515625,-2.0751953125,-0.1220703125,4.06,87
2025/07/05 09:42:51.862,46.0,1.0145119844643,0.247547641129711,66.9631357393059,0.0551384025636872,1.08225445244662,0.28107424901003,0.499480868071795,0,0,0,0,0,,-0.93505859375,-0.3759765625,0.03662109375,0,-2.01416015625,-0.30517578125,4.06,87
2025/07/05 09:42:51.963,46.1,1.01597348697381,0.247885344401779,67.0075657836097,0.128762478593363,1.17886247986767,0.329049029997093,0.615996510994817,0,0,0,0,0,,-0.93359375,-0.37548828125,0.0380859375,-0.79345703125,-2.74658203125,0.54931640625,4.06,87
2025/07/05 09:42:52.063,46.2,1.01751417494621,0.249236431250456,67.061907613026,0.144131342923876,1.18723068253312,0.342457458320843,0.636163636853816,0,0,0,0,0,,-0.93798828125,-0.36279296875,0.03564453125,0.3662109375,-2.5634765625,0.244140625,4.06,87
2025/07/05 09:42:52.163,46.3,1.01900842472733,0.250498296107643,67.1237144289163,0.141566582710935,1.17607618839099,0.342457458320843,0.62175025147497,0,0,0,0,0,,-0.93798828125,-0.36669921875,0.037109375,0.42724609375,-1.89208984375,-0.732421875,4.06,87
2025/07/05 09:42:52.263,46.4,1.02035983856874,0.251712309495188,67.194541436796,0.131320677638933,1.16494652341607,0.337089771358207,0.607378295832412,0,0,0,0,0,,-0.93212890625,-0.375,0.03564453125,0.18310546875,-2.38037109375,-0.91552734375,4.06,87
2025/07/05 09:42:52.363,46.5,1.02129840502708,0.252106817622529,67.2880701203947,0.105797396460844,1.13446707232356,0.321021198582168,0.573053218745495,0,0,0,0,0,,-0.93408203125,-0.3837890625,0.04052734375,0.1220703125,-2.50244140625,-1.15966796875,4.06,87
2025/07/05 09:42:52.463,46.6,1.02235979150313,0.25222705863737,67.3924841450673,0.0753404499476784,1.10142730501573,0.305004100233153,0.533302868010519,0,0,0,0,0,,-0.9306640625,-0.38427734375,0.04052734375,-0.54931640625,-1.708984375,0.8544921875,4.06,87
2025/07/05 09:42:52.563,46.7,1.02357156376302,0.251947464387431,67.4907747433579,0.0375283217292073,1.06043226865049,0.28107424901003,0.485455613642746,0,0,0,0,0,,-0.9296875,-0.3720703125,0.0361328125,0.48828125,-0.9765625,0.06103515625,4.06,87
2025/07/05 09:42:52.663,46.8,1.02478333602291,0.25171199686984,67.5890653416485,0.0375283217292073,1.06043226865049,0.275772021656844,0.488257518969918,0,0,0,0,0,,-0.93310546875,-0.3837890625,0.033203125,0.732421875,-1.708984375,0.244140625,4.06,87
2025/07/05 09:42:52.763,46.9,1.02624840605793,0.252310370986548,67.6873559399391,0.121095725352659,1.17329144873366,0.329049029997093,0.618872553596689,0,0,0,0,0,,-0.9326171875,-0.373046875,0.03369140625,0.244140625,-2.38037109375,0.6103515625,4.06,87
2025/07/05 09:42:52.863,47.0,1.02765034755836,0.253855628068688,67.7861044136876,0.156974915168374,1.20400922151796,0.355901940542037,0.670926232910222,0,0,0,0,0,,-0.93115234375,-0.37109375,0.0341796875,0.8544921875,-2.25830078125,-0.6103515625,4.06,87
